ax,ay,az,gx,gy,gz,label
0.051079208852759475,0.10305805856240574,0.9342165446147863,0.04272626135333079,-0.054596695019765655,0.04451237504182544,0
2.9922964474478984,2.395336159345364,2.393638146561457,4.459575488311065,5.517775813175065,3.0439083018771567,1
2.915080686173152,2.1864211243279126,2.1100946571025663,5.032389398126397,5.423513487603454,2.0469595366351503,1
-0.02874475194003556,0.02873289044030093,0.9954487754698758,-0.021211816669902177,-0.028491646411937938,0.016475436778650456,0
2.9532720785549817,2.036126024118958,3.028905588548881,2.561588833205441,2.9848291009079824,2.87348110304605,1
2.400468723120065,2.092413516810827,2.166380239318505,4.55982844882806,3.737642656299959,1.7892573733708355,1
3.149993686131067,2.480152584043334,1.1029040667252819,5.083145212660734,1.6614813767279293,3.8981173241223477,1
-0.01902408444132157,-0.14974466686057486,1.1363228975132251,-0.01518130364490005,-0.024444305952184563,0.07944701642220414,0
-0.016838492247285255,-0.032601249581684914,1.0390366194395375,-0.00769526134873438,-0.016019252971839718,-0.08896994652536104,0
2.0457487442439044,2.302053727719522,1.1914140549772276,4.346312710224886,2.869951568651659,2.2658381338789857,1
0.19002684243109647,0.10230565552522393,1.164354150912053,0.01955639384663631,0.058375491149322306,-0.036198236523389375,0
-0.09656648035232081,0.16291663649009452,0.9418217966607946,-0.05869399822044863,-0.009896886449234095,0.1033953169081776,0
0.03467099776049199,0.25115565515844235,0.8159922255494247,-0.0016140305524735164,0.032027146753738675,0.006153910082809058,0
2.3341106141139387,1.235704351870357,2.155269818957102,2.884782772029081,2.706865336386063,1.8092541992633284,1
2.786235705889868,2.325482839389721,1.941009452696311,2.843003544335636,2.817925201976217,4.152348638961926,1
0.04666709819660811,0.15210062271593802,0.9051083479175163,0.08736815989577791,0.04660957821301924,-0.011827764360947303,0
-0.16929568141953855,-0.00983396267947499,0.9011408892849082,-0.05517946586078855,0.008994707557673924,0.06960011431722997,0
-0.07538621136909615,0.03826535514774916,1.112493254530324,-0.08713859869405205,0.020471926532112616,-0.013833588585957271,0
-0.07459421264756014,-0.0661541442515292,1.0753419463502432,-0.030726939184554748,-0.0428174259140602,-0.030581686834727957,0
0.028099186773503267,-0.06226995198205938,0.9791877749642725,-0.024650046732941643,-0.029468237847210577,0.042480104851051234,0
2.808714315463662,1.6632928802200637,2.443901967789424,5.398483993069322,4.281175336287599,2.7846117111399233,1
1.461440073113063,1.8823630450137805,3.0729124625382442,2.4550640778465995,1.5180355142612867,1.5008187980423018,1
2.4106595561960082,2.3764455407468925,1.6925279487419784,3.174834100254462,3.7262380886674213,4.117933822727152,1
-0.22235741679371968,-0.05180690194750568,0.9699019687606778,-0.03157185137415917,0.0621702898593581,0.061401510480406755,0
1.9090090019658905,2.497986839423223,1.6508690756243038,4.124175684744613,3.1192365961381956,1.730534733987187,1
2.3817313083157323,1.3442254310506592,2.0940366784958866,3.148819517552515,4.165334534508875,5.209605576042378,1
2.311788722705902,2.1580339348649757,2.2919415111420007,5.284104695178898,1.9927741796160616,2.4432821021428373,1
0.038632331781156,-0.020447122098612155,1.175547569831549,0.07865098626074282,-0.023290278455908142,-0.007541885578334766,0
0.03483417392461269,-0.08978300664256295,0.9512294627051255,0.05371665023851219,0.024820005886697055,0.10375325196742709,0
0.072762954363698,0.005194588580729943,1.0732640077215578,-0.004035829005429116,0.00393175951580453,-0.09991003422660538,0
2.119119814658677,1.850151971667843,2.7879379047509847,3.9522007496152103,2.773225862166157,2.1223826431370947,1
-0.053533508701622316,0.03584536182096203,0.9269043724284527,0.03789609249618098,0.034275386939510204,0.09243044166482058,0
2.6086039687642004,1.7676163880441362,1.4113867912743947,4.468540161546069,5.282905600065144,2.7526596129748433,1
-0.037231905293792285,0.04373131870389607,1.0185175536829914,0.021272243209208615,0.011114492790042703,0.06394329066566966,0
0.03199651911451631,-0.14069434005131695,0.9558151072759176,0.005544319141420893,0.08522960466486885,-0.055405622912943465,0
1.886492961355732,1.6600470516265844,2.0924812936710433,6.401583661030353,2.636810287833172,5.040133885996919,1
0.11947628618769378,0.08946471875738723,0.8627140548518936,0.017573995017610086,-0.09891126246874052,0.0023467451030184817,0
2.7755085301131497,1.6332589666608603,1.8495870219838506,2.3726882720526845,3.686990209724664,2.955726680155351,1
0.17349365758368085,-0.08567720938267928,0.9444453220513134,0.01021945158014884,-0.06010747630380445,-0.019784035587813192,0
2.060939148197274,1.507526937441484,1.9430876138462616,4.432972928043635,3.66392406359343,2.2573408342276218,1
1.419348056848819,2.2412668549105925,2.330171527281341,4.747546125786459,3.1049531478304324,3.3090468350240347,1
2.603338814269558,1.935351271482246,1.9331861351366144,3.223305947027856,4.441619013551491,3.076518062243711,1
2.227456385002205,2.9083778147875523,1.365354447378448,5.5361567728549455,3.3886811512021993,3.299085734021106,1
0.07436517755401732,-0.020487666386471724,1.0031395865532777,0.08037891531997553,-0.0010280278675253594,0.014459183655936268,0
0.057707212718054006,-0.02030453860429927,1.0371145873371308,-0.03019925933579103,0.004329489373644996,-0.007783861769603974,0
-0.23843067887857458,0.07451508642848174,1.0134166415995844,0.021417102533036247,-0.03557310970418524,-0.01922284394885458,0
1.238271318743765,1.8495323535149335,2.321358576315742,4.720639231357267,3.577363730284097,3.8892634247589757,1
2.8454554786960964,1.777596580914755,2.0695143434765626,3.9548771096759485,2.57411009610885,2.8863333109185647,1
2.146223857352947,1.7306048477116445,1.639893989496605,2.874345032199415,3.4587086382153385,1.5254973129517644,1
1.3044607173580203,1.490099333152703,2.4896298721434813,3.7503444617810806,3.707542294888742,1.6532143378845654,1
2.4827178800780985,2.452858800248683,3.17281208094822,2.5999287655982615,3.396187515597033,1.8195395147679179,1
1.8802059937374858,2.303920169367504,2.550665082444775,4.7163400805404105,5.824698914323418,2.471053237275301,1
0.09513062442994835,0.05268979236657937,0.980912778044682,-0.009909783818985995,0.025507873445759173,0.06362850814642848,0
2.5071436059419945,2.4554722019197377,2.806489085296527,4.729236949310753,3.4168282280653806,4.377335029528342,1
-0.006413834659299254,0.032876241030348044,1.0321357215450273,0.02109603771176424,0.08068556345293236,0.022676715075698992,0
2.0307664471294578,1.7267961902681634,1.8588797040383855,5.050774290472114,2.3370610131470873,2.6425849518293,1
0.02407531794885683,0.2601683114180395,1.0565509645631543,-0.08803813795779089,0.03766708105522663,0.01905791924413889,0
1.719914587435028,3.0586620721854767,1.7943697847582583,4.145616996826892,1.60796642751433,2.9378639335306915,1
2.8815711503548282,2.4612405851165544,2.0621880611504646,5.598110895751759,3.716719642122883,1.5831764720508101,1
2.3047956308597644,2.2580720197931896,1.6737358533916775,3.388822847980673,2.972005978234386,4.353069160166408,1
-0.06135876053627945,0.019624094066672048,1.0545786713532355,-0.10857857023802238,-0.0004056600805875145,0.007904461266159221,0
2.0384638018422114,1.8652531221480069,1.9618609241302087,2.338419010822008,4.360332559416721,0.232674577397602,1
2.9737559542877836,2.3373474889043098,1.6908174899779351,3.2051063529983095,1.4276448183040018,3.1540318416835875,1
-0.061176909090528545,-0.0037036797048412024,0.957069777548274,-0.0346210489936928,-0.0703158731835917,-0.004155278631434739,0
3.424020095885425,2.4953554233120427,1.9394894844952177,4.727171259533949,3.0962965660020934,3.829149035059542,1
2.076751098565546,2.303973783502877,1.6222505584330253,3.898013345406322,4.94694414638698,2.339165764189854,1
2.640615246109302,2.7447997047238246,1.3648189768374568,5.15469376671672,5.8674143640271215,2.6222351124775227,1
0.19956674897839644,0.3109918556005361,1.0606723059136183,-0.009159830936019393,0.026725282424027514,0.04438277129369181,0
3.1248552100921594,1.47175146468737,2.537610770590958,5.047276408559463,4.363437280189879,2.984436911129706,1
-0.017262729994081964,0.08836599374866724,1.065232287841342,-0.07881960784921248,0.07382701748629479,0.06900456770737258,0
0.08595848723435562,0.00798014840587331,1.113955553602547,-0.019368098227640563,-0.054931021258890614,0.07102521436355316,0
2.1708086410297773,1.7027481520254963,2.239070287777904,3.422771274289429,3.6525258828976166,1.4484625790318733,1
0.045060341286253885,-0.18698163395321643,0.8838216156087636,-0.014156944837188358,-0.015042987357041314,-0.06047384677094027,0
1.6933158818975302,2.003836596660753,1.337421422401119,6.105086639334502,1.4384768878877505,2.199824701335896,1
2.135520374983419,1.905492851158763,2.090147440251722,3.185131851090656,2.0237374559982206,4.805574432686815,1
0.05462842480036996,0.0006422269810937817,0.9563614109473432,-0.005480490196291542,-0.004418147960266766,-0.018500551494106385,0
-0.0009288561567815747,0.030698107268623778,1.1813407698515423,-0.017143943077878206,0.01391743173223348,-0.025460668129956728,0
-0.012334406404611045,0.030904744303265393,0.9344312280538556,-0.011785562242833426,-0.04697316209929914,0.0559622458782048,0
-0.03649527295428853,-0.08392096673390065,0.8955190805978966,-0.09831782946880009,0.10281035649701611,-0.05516041828608416,0
0.07783610761666378,-0.055118571632853344,0.9181801116577692,-0.0001687228705476026,-0.008509231126246422,-0.02266140246636376,0
-0.04835614838465371,-0.06121669171548208,1.0491207665411997,-0.017901468987349314,-0.006969860033161708,0.03698265758623357,0
3.2477291226214784,1.8576872478731605,1.0139554866780909,4.288028368305489,2.056074452926243,3.444853537557488,1
-0.031984752325484395,0.015175799224874038,0.9164857098369977,0.10447693608473868,-0.08038305135590294,0.009237028944786223,0
-0.010325476014904739,-0.16431888111541673,0.9824145595567929,0.08307350828640092,0.0010443244147980894,0.011535045285934175,0
2.250376192752672,1.063379944090424,1.774815904371666,4.406847635139783,4.515392328675223,1.8281686995274748,1
0.06264346724539442,-0.007990845266254971,1.020507533923463,-0.08116912649706218,0.09442184698071283,-0.008212099251601594,0
3.227700668863096,1.7059907404815164,1.9067133734723176,6.1711928610624955,4.944343411979945,1.3275954741876475,1
2.9805467286160416,1.16345799374713,1.709209618386391,3.144472312059376,1.687272034926857,1.9674667237905894,1
0.049619918736331634,-0.0535316712567659,1.0511499575361862,0.09675770200301147,0.040775051122213135,-0.0024044253665386293,0
-0.01343087414705478,0.08108082731597821,1.0793488720552213,-0.08742659866190905,0.06521701214390763,-0.08312459940178372,0
0.04187599601274966,0.022058353773736078,0.8729048278907717,-0.01892898716065771,0.044933458016958715,0.0018848286561961452,0
2.53294580430112,2.8325711912718905,1.8661172406375777,5.32270321998898,3.675574084925822,1.9752492499236098,1
1.9045417470131367,2.3393640346397095,1.5354318297451208,2.865979814065042,3.153228423233288,2.41420727655131,1
-0.018826133508630657,0.1193112945851028,1.1021515392781864,0.04594574273291647,-0.022982838613649848,-0.05399212238907435,0
2.2716511924883767,2.1694967569047097,2.2281247442642664,0.9553434607568381,4.521635213827608,4.436368034243754,1
2.7208312820930303,1.2831349875948859,1.5812971373422544,1.8931108853739191,2.0760418878023934,3.178529169720478,1
2.096204329950852,1.8882637473815305,1.4775818430484644,5.783922595201769,5.181492457418015,2.116131104859271,1
0.1726963851233405,-0.03996361856146024,1.0224684725751887,0.0466295415936545,-0.07091828664665159,-0.0880404405990388,0
3.070392900226237,2.1465044036293275,2.292760766428434,2.328667732365228,3.8710537382153634,2.265024898742734,1
2.1139038060978104,2.8328016068432635,1.8122499799622145,4.699464246895702,1.6249926125280636,4.179988529689787,1
0.10417246640588514,0.05835443030118877,0.9870482753136559,0.02899286426475661,-0.035344628399367445,0.042777782951035605,0
2.5690392042087735,1.056935648024487,2.0265296564663093,4.86528975613525,3.023123539356164,4.677115870186871,1
0.08303358165442457,-0.08560838259088673,1.0071566237219391,-0.023882872338255836,0.023948991287319595,0.016683105264347416,0
2.6944094551318565,1.4130633368469856,2.556317152601651,3.928879709169664,3.5855947039445253,2.721627032392106,1
1.6830385204703564,1.7875843262371807,2.2512498480646452,3.109251136447736,2.0731734232186576,3.0693371617153478,1
-0.047917423784529,-0.01856589766638171,0.8893665025993972,-0.05981033120403354,0.040626291119709904,0.06781200142854114,0
-0.026940683444455778,0.07175422557959624,1.1502357052096028,0.0037047390209887596,0.0814307772785646,-0.06900507291074458,0
-0.0012246772846914624,-0.08972543714858316,1.0075804558193726,-0.03385808557560559,0.04875598667088756,-0.0073528690751069326,0
-0.011564828238824054,-0.03011036955892888,0.8521478009632573,-0.03599221041973543,-0.023031938547989378,0.05285611131094579,0
0.023402445435314796,-0.024852861807444938,1.1200531658473873,0.007017993492402348,-0.09835348517935762,-0.055859323085350125,0
-0.038817681854122876,0.01704162223754877,1.0160573981049865,0.0001523010076707235,0.021846908487317494,0.05953231373931707,0
3.2599760029571496,0.9321000756325972,2.3798936184765385,3.1604724419823427,4.872271316607991,3.1420444788305453,1
3.1625023274728195,1.513832498091906,1.0287147142812967,6.359614259100104,5.7689916116594535,3.188453596429283,1
-0.05286166817497569,0.05863640187550933,1.1238283071433637,0.0010635788368030825,0.01544165062994819,0.0851107472317619,0
2.3332568595151524,2.4426281604329803,2.4395070772785035,3.053509204011572,3.3178394161420757,3.2812116825840656,1
-0.03294477863470914,0.07318707042882956,1.0335058029084117,0.015807797859138915,0.023463379490426314,-0.0767786061603553,0
0.11496720188787471,0.02965769385303051,1.1267651511187973,0.014436400150491815,-0.057855830935663544,-0.06665641773889033,0
2.2178550736404903,1.7036485885214467,2.3276168142568805,4.256997445585831,2.176350429157821,2.564098530909567,1
3.1553029564067314,2.5855509858347796,1.3717173320272824,5.289203051406873,3.181841498382071,3.6007330151455914,1
-0.02441566352906487,0.09640871682883573,1.118947048892464,-0.061380390756849625,0.029870003492492903,0.03505863711554492,0
0.11487657003721036,-0.17397137787780997,0.9637559058596867,-0.0559834947313072,-0.06473407378604529,0.05804133936892597,0
-0.003989438375171192,-0.1404239566261589,0.9865819789323076,0.025967937281894407,0.08366819730762619,-0.029472619996935925,0
-0.06538983883255765,0.002731337985143867,0.9952629297455564,-0.07910883816730636,-0.04701994582421767,-0.028038045348993013,0
1.980729571482122,2.5563990978064535,1.798583285762598,3.8306711428849525,4.155554358288453,4.805668878116265,1
-0.022647889190152676,0.03673655068161781,1.091358462623325,-0.04015894753401725,0.07463442844797609,-0.01355618005212844,0
2.2870910008167242,1.1714282074338476,2.2356956313824954,5.271899545423944,3.7779824402189224,2.1525261094349353,1
0.0513907849658915,0.017958178193959794,1.035063009927356,0.02445935650738318,0.0317360734280885,0.05548499209781116,0
-0.04344962274323156,-0.03091721234686394,1.0222133771633712,-0.023937431083173866,0.06278780627867604,-0.044730365110975195,0
-0.128716356858425,-0.13971181851129913,0.9416400673653995,0.05191894255096583,-0.07596730377384213,-0.14160777990552845,0
0.00861108682589779,-0.07469232850701676,1.099016623895929,-0.010856553747310125,0.026326834183615356,-0.023870535309640024,0
2.489071626278938,2.3536156869021383,2.7375561821549277,3.8065723714187945,3.718388987544174,4.288863425206302,1
1.7138847279609353,1.8462695499924289,2.1949727996917185,4.074887584371558,2.2534380338405735,1.368932374805021,1
2.0837616891383055,2.0476751371663893,1.9101848136372424,4.779130625588352,1.9227716290804993,2.149802254185344,1
2.0320843851047172,1.4620530856378702,1.4384024745623112,6.045654547677154,4.03034290167058,3.304492201680145,1
-0.1111457956937032,0.02465047784320049,1.0498221748496785,0.057007451926063324,0.07902703432841868,-0.050754709591393436,0
-0.01044492185374715,-0.016882172319001063,1.0070052163113181,0.058093915130409526,-0.04636765670952871,0.011918449136739256,0
2.072753268630973,1.7984670659816389,2.136118362663694,3.9427295891778975,4.048066924707171,1.660510633471341,1
3.5022116518375856,1.9513444246492044,1.8509237369000497,3.3079348013353083,3.431797469667331,1.593280567440442,1
2.1246398327535934,2.3963555088668325,1.2616713882409734,5.057801007541919,2.967856109826898,2.611431779508797,1
1.4040106718600596,1.288882749246563,2.3408171118341947,4.014108356253125,4.105513651124165,3.0644075224319423,1
2.0828309067086686,1.654472811303052,2.0591751005617183,3.196639567234306,3.46186543117536,2.789465059647008,1
2.358146635817634,2.595237492596741,2.510981388339071,4.211209399224456,3.1604698433340133,3.960932178608261,1
3.72062792263267,2.30475494810622,2.958643984302877,4.829098440018336,2.7581568389915248,2.618228803325957,1
-0.017909328501615626,0.03958197810959231,1.0692855755817812,0.0367318772729665,-0.049290190433391334,-0.01420775489643986,0
0.08712972974572442,-0.13459796802467486,1.0126379579546412,0.09694644995291424,-0.05001656623027874,-0.03388724852624258,0
1.774386850549421,1.5378657987024642,2.606589594195795,4.53289172022704,2.8827142931211127,4.202249003361171,1
2.5998052092013912,2.547089773760738,2.2395015716963793,3.138690420302892,5.678562173991661,3.1943334633382334,1
3.3264565256152108,3.0388887925992223,1.9834873681402196,3.496349739624404,3.327625042546338,3.7147317275177,1
-0.18210860692944963,-0.05976676832548571,1.037021188994174,0.029215708321765496,-0.005023786028585258,-0.0028695351500771203,0
-0.20744863510163114,-0.002203486400427045,1.1121861504794253,-0.00933394811567225,0.036453182250118225,0.017558273381354204,0
1.94103619598163,2.7695986000874537,1.535890016325991,5.243428278102925,3.8553381955901367,1.190732285411742,1
2.2355418104476725,2.388798030896136,1.2706208037346531,4.235135299366188,1.51531205855409,2.732862514058245,1
2.4808380821513136,2.409382985424408,2.5533872593121645,4.414784462079242,2.536603658801431,1.0679348414800405,1
0.14196030045136374,-0.06004235657387052,0.8133460048639384,0.05037568449184611,-0.0342314912880002,0.03953127995813843,0
0.13705361439967134,0.06952029000839993,1.02837510236615,-0.04939366704503746,-0.042342548306268234,0.06248094526483333,0
2.9740714752360247,1.847022784234204,1.3817608567038255,5.2744402278489035,3.4046589088033175,4.730321814857168,1
1.9515624603080068,2.4110330390162638,2.4360765528420276,4.324036442706533,4.324102896855706,2.8358505872782263,1
0.17549330716472417,0.001840163078343813,1.022526411724755,0.034636137755842976,-0.06346652482733496,0.08512573290648029,0
-0.023093453020867797,0.06962063648134184,1.1848956094945344,0.056328251477387875,-0.01344443452774153,-0.05532629543708352,0
-0.007394756560839259,-0.04516594761596227,1.0195024984028127,-0.03791410344437951,-0.05653076674687632,0.031135561195013428,0
0.005701312489708451,0.026859227886325693,1.1528468426412533,0.02539178781448119,0.02691480395248165,0.05362536686549011,0
-0.13585740152574743,-0.10797363212758485,0.7978201360038053,-0.005064035935076644,-0.029921879029052346,-0.04832939454926576,0
2.466775512345272,1.8209602769103406,2.6136369110406314,2.789839497019115,3.9385792909210053,1.6299733726355707,1
1.854528890253388,1.7965128168133144,2.0070024836856906,4.5637878750069145,2.9086052701619525,4.555198534147342,1
2.9114942960016608,2.0207709202819473,1.4631535769012678,4.4583179391254415,2.7851927410085295,4.7945248483922125,1
2.2469553544040557,1.433478826311269,1.887660049185065,5.07502121451091,3.495737062356124,3.859414254759453,1
0.04413071516992459,-0.07331561971099966,1.022899639245934,-0.09289507256991436,0.03016237502856969,0.014907923299526282,0
0.08584511166566654,-0.02346205699574138,1.0038237994960029,-0.0724295707316772,-0.014983832400339354,-0.0025102308520872393,0
0.07589285897867652,0.02811914239693758,1.0104201103951875,-0.003129656394976121,-0.037698229443333814,-0.014033753843338704,0
3.1333306265992062,1.5144689854461335,1.943420752771958,3.4447269119868285,2.5124770375730052,3.7413198169079145,1
1.0228755293789844,1.6791364281739354,1.687041991157699,3.0217450619395225,3.6222430045470664,2.5810365544787652,1
2.7616618913642945,1.5997048288259472,1.8452450570363854,4.1920042369686765,3.7775158588818902,3.320187854921873,1
-0.08353470532597573,0.21451491277733883,0.8812401580970487,0.015491035511351376,0.03168884404660493,0.02068995487257491,0
2.0858531198258006,2.0600992793730275,2.2254061681659,4.209686063574488,3.957541934004781,3.4337476093485355,1
0.04200944904518413,0.060685059321567106,1.2056543564829543,-0.05654442176629579,0.023681603840572725,-0.04631905649907692,0
2.4226548344327226,2.3569387220450686,2.049507224743629,3.4775852716224906,2.9331866821976607,3.8109137726156965,1
2.268072785247027,1.450906808110925,1.7755458063434968,3.5938896429765967,3.5967549184388004,1.385250137708669,1
0.050573543247279897,-0.008670113614820873,1.125761905635936,0.020302806121404046,-0.011746213576048731,-0.044675754625964015,0
2.452444176149617,1.8334811904731192,1.8448045043112173,2.4521984436909685,3.764254763607339,2.9596660897859564,1
-0.03021805869826214,-0.26031370878272986,0.9638689438032709,-0.003209208064440964,-0.05052991099644567,-0.025760919690412137,0
2.141073392822982,2.397931906170613,2.3271940670303817,4.2899111740376625,4.816007419718498,2.4612151621526115,1
-0.060756879177955594,0.1568182429527326,1.1447796418457865,0.046932001133947236,-0.008805621697993133,0.004149370940625499,0
3.432024265205879,0.9292845598401476,1.650199595648818,3.7906243866880867,4.954826174146651,1.363596980793515,1
2.452437561223265,1.2939621968421848,2.0827457820665702,4.966139660861049,2.371658429734217,4.272483330848759,1
-0.11437262073206618,0.010855970577652314,0.9966770009355539,-0.010405842863626986,-0.006426875571946537,-0.09409245227488196,0
2.5209479605771383,3.3183345709727945,2.576751424890772,5.16257366818784,3.935546318992364,3.1664852725771473,1
2.3252875246821465,2.4515290833684666,2.108736741507112,4.90785238490987,3.1855562097023706,4.325500219721256,1
2.9694785891174256,1.2351129599453319,1.2528682354668805,4.180871111482433,3.0084555861930955,2.372951385302259,1
2.902466695366163,3.095208500594212,2.44119854489499,5.027479343352692,5.474078687745024,3.3772632593422265,1
-0.07153037092599683,0.06795977489346759,0.9269633368282864,0.010822929479098744,0.0022785919951906894,-0.03258001738029086,0
-0.1092312764672579,-0.03164084496948019,1.1213097699979184,0.0070858456819952375,0.11596647699908472,0.019665891969718595,0
0.004360244637245373,0.1695051040430753,0.9377350638265548,0.009730372761862137,-0.037123529284902416,-0.0660011255610353,0
-0.12995812369275977,0.08297324178791746,1.0811396554491592,-0.05741316443763092,0.04093888218774303,0.07689659592062764,0
2.364134980065146,1.0651341690225045,1.9683483886093316,3.921411607085643,4.69836856937346,3.01433642217576,1
2.3376901628010294,2.118865863952993,2.051539110765424,4.0239800190155925,2.7493731780232444,2.7004505888008077,1
0.16153756894694418,-0.03223204692113399,1.1217158520825496,0.07606580259612257,0.049915544907398024,-0.021581015635902423,0
1.83171574984254,2.6683286788794915,2.7743196475120184,4.320216577948829,4.721294945685148,3.133958380580235,1
3.0608445711939596,2.1145474158231896,1.8384161671487576,4.2688123564121545,2.981362002515424,4.718363995763876,1
2.6564111183834234,2.2868835549509505,2.698922153515749,5.191173044940095,2.958526993492831,2.8979937198727383,1
2.3156903171071503,2.4035232083033438,2.5598438892766904,4.283053162258653,3.160688812861841,2.9586627951908295,1
0.07833905092825955,-0.025153888604449573,0.9402489805308358,0.07111849308492539,0.08694498318987895,0.048942902539089776,0
0.026705026586925886,0.08896307956234371,1.0082283989275425,0.053274018753267566,-0.02586442250501861,0.070467372009279,0
0.001843393306539316,0.03475817053616711,0.9460240319690638,-0.03891523627011564,0.009792262754884078,-0.048918638880751604,0
0.04577728661518858,0.16744924333475375,0.9994403981170954,0.033437082779625635,-0.054585043806965716,-0.019354985123720053,0
0.09495945713644882,-0.00594151812724941,1.1855503314794262,0.01121173722676459,-0.01732132530034498,-0.0805783679551414,0
2.657485935777666,2.107491408727274,2.561713643547881,4.676994097375054,3.6928618431501907,4.51842203065218,1
2.520153849665124,2.44746503078278,2.2955452656626107,3.8435907212071974,4.263668149718995,3.400737253691613,1
3.173285831305148,2.721835159583119,2.145689492407973,4.03218508703684,4.372817083178335,3.7320809514330224,1
3.2232816456256836,1.77007036884243,1.7851825107362456,2.6988907336086547,3.07101928262758,3.964769894302446,1
0.04258872061930358,0.001914777741575206,0.935851309095569,0.0243936142435537,0.09021740548933715,-0.009545189586364935,0
0.09500158286696457,0.02430047220543997,0.8467299440110069,-0.00981403256939684,0.015085000445086778,0.008776811478929896,0
0.14350873992222354,-0.034730228895784296,1.1453275476042544,-0.003911532952925891,-0.09209488864789288,0.044603379986586034,0
0.00917607765355023,-0.1987568914600893,0.9780328112162489,0.017855628575587323,0.07389470223707581,-0.02591351091368237,0
2.7101342645282807,2.6524813443952096,2.303471304193319,2.158080921068457,4.804834763319329,3.135176241342669,1
2.3384621286614875,2.6677852277683782,2.487600270842383,4.369263777649905,1.9941675946693795,2.950089766958838,1
2.7935287672972677,2.0032743289022696,2.271211984766051,3.1910361070741997,5.057905432318357,3.9926281029794293,1
0.08389405004696122,-0.06172531865469232,0.9441698246053969,-0.05500771164858475,0.021975061531011322,0.03894682517560571,0
0.1030999522495951,0.09312801191161986,0.9160782476777362,-0.01546061879256073,0.016563171570178198,0.04877725635611796,0
-0.019236096478112252,0.03015473423336125,0.9965288230294757,-0.05843390188097661,0.05714114072575103,0.03759665163433871,0
2.8974615569377793,2.6745675525567147,2.529085046912051,4.4705098473785565,3.5118626791807843,2.019211991586441,1
1.769749550290756,2.5956303408159163,2.3375685282034606,2.283966751689311,6.210794299040533,2.936254714496034,1
0.07547332980678093,0.019942398598676712,1.0473038282160214,-0.032278603601769755,-0.08305417077835864,0.02516260323747524,0
2.1571625412049347,2.4101491872544822,1.524523308452764,4.6959321009408495,2.9833858012398924,1.9767467766244156,1
0.02935579321666293,-0.13565818046234052,1.0466429982433527,-0.0017820741148741786,-0.08075659079527547,0.05823696772285857,0
-0.01248868853500674,0.001569779595775838,1.0218659306757298,-0.022316025761717248,-0.010031964941271593,0.01837552052703011,0
-0.017495975669540864,-0.07557451594928448,1.0536509843570403,-0.04492339908955187,0.0014090578684564125,-0.0004559498322101772,0
2.181888143674035,1.7174697632244038,2.935537241154057,3.1491159109611013,5.941221722471914,3.437126779731052,1
2.6103154021535815,1.8239561262730595,2.1623791197667708,4.5805676870356145,4.709230647223938,2.975713504329974,1
-0.24883273534129896,-0.06582484123338483,1.0453508712554467,-0.04911470171273398,0.002949211079479869,0.0223436250401349,0
1.645386800398702,2.1958490080052364,1.955398351154166,5.610292980482871,2.5604348327460418,1.1917046715004855,1
1.831162906956158,2.306085809309292,2.2846446616350318,4.071668553880244,3.257624541894889,3.962210578581098,1
0.10225704320096403,0.24397524063392728,1.138427281851052,0.028195456002617983,0.0297377170832643,0.042670777939015386,0
-0.04473218956587512,0.1281016361735113,1.0067855510527404,0.042638683756110976,0.02423664086472374,-0.04231783274954368,0
2.275652158690258,2.117129632228383,2.2994981708421323,4.853348977340147,3.0058099769330875,3.2838445673027366,1
-0.19701038177118357,0.08925973382993092,0.8788828070719219,0.03653820595332623,0.0007136533918217054,-0.04769697096983225,0
2.509023626234112,2.6053372762710985,1.700180002589398,4.41195299906181,4.351591045893198,2.0903195606875244,1
2.794218090120154,2.2187531017365183,1.711328992145833,2.490006829420793,6.787761187388739,2.858850327657194,1
2.557154376529624,2.000901753178207,1.4553286811439468,5.108444601722892,3.795195368158836,3.394881490002578,1
2.930091319197578,2.405130022187667,1.42227410309117,4.725081044447508,5.026812663577266,4.9025582052295595,1
0.05500520990245519,-0.09683444548636354,1.010537550614596,-0.06670127474591023,-0.030068382197560684,0.015989096707126848,0
2.14434838652526,2.0585621080749257,2.1181118231321165,3.0608444302293183,3.115612623407079,2.794233006322828,1
-0.09399678291500665,0.047665104080055753,1.1715907631132694,-0.004876269187281172,0.016390553678706166,0.04762390784764027,0
2.7504586645429288,1.508837863861612,2.8026779811809033,5.22393634423789,1.9285800016616996,2.0676287568180127,1
3.130424759999655,2.308331988235559,2.0439867735645847,3.5597253631491963,2.971001585796873,1.9242633515583887,1
0.08760467925297943,0.1472670675750982,0.9396019374030771,-0.011477432768017354,-0.08197420812627171,-0.019623555303043647,0
0.23883719928704386,0.1184256645196173,1.072282689498551,0.005589957910169413,0.05035786002983346,0.025899738819572596,0
1.815268112671971,2.882412941895868,1.6128650387979726,3.7763334281965557,3.830613261090406,2.4346500474989057,1
0.03244586043525171,-0.18038627925623651,0.7608043795686976,0.042238718789085,-0.0002780146824035283,0.05892563448992114,0
-0.006267909727317188,0.09551423205012383,0.9014273953664456,0.025202325775892223,-0.026512880918622042,-0.03964364161311721,0
-0.07179188907476018,-0.023052462518025084,1.1179725208360711,0.009705381547667886,-0.026560714730379926,0.02419383255940199,0
2.2484182404768216,1.4931970788227655,1.6852028840681013,2.7674109358310846,3.9288111804330055,1.5439535066535666,1
-0.15929937335316693,0.044047473796039904,0.9980362201073318,0.02762449772085739,0.011195706703233072,0.06820702149869222,0
0.038897872935218375,0.02514736089405121,0.980573086802148,-0.03778957500791815,0.05243535632082818,0.08277035565441476,0
-0.07798529462216389,0.10819848092499423,0.8650423788448468,-0.020760688395263578,0.0017013705536116025,0.005568630092002621,0
-0.05574917850078336,-0.13698029795790778,0.9911717951648745,0.12898546688271592,-0.040183728398486544,0.08195584027220337,0
-0.18070413949318165,-0.027484530066979224,0.9953738782733658,0.005705074611325996,0.0030941676443567608,-0.0463776665405864,0
-0.1024186824329205,0.18540925663341884,1.1221033695525353,0.02910488517343079,-0.011324204942491596,-0.04797196183617399,0
1.874400431683161,1.2337408615851682,2.78971894584743,3.388240360495415,4.6359478459438215,2.846002334802168,1
1.8274927580346656,1.5694751639172122,2.6885904682522805,5.020036506902089,3.136868353182922,3.85440200112072,1
2.3497153047073756,1.7765112235969795,2.109654456566027,4.035295390745216,2.7771652048217503,0.8244512230124301,1
-0.044328225119151035,-0.0884802714026901,0.9827053940076577,0.08558542400711718,-0.06859505714656781,-0.08067806989383706,0
0.02525688459966235,0.13845320475939063,1.0444198327290672,0.05506614788678811,0.023327265572506348,0.06731128781013741,0
2.383196519508567,2.1009995053786605,1.7525177245546497,2.984004568831971,1.7552396123946985,1.9446758414075405,1
-0.023591652931212393,-0.04068852445043747,0.9465243329155677,0.014748572785441078,-0.07486288225893223,0.06404697883333638,0
-0.1843793583480746,-0.08903178480198719,0.9935922235851283,0.0268145454758595,-0.10980639105499733,-0.008106198773992922,0
3.2100924693909745,2.296056950142459,1.6466654479634297,4.719599497624891,3.429776379425374,2.712890495137657,1
0.01718393397935312,0.05532512199847837,0.8824405394375148,-0.044753492113830236,0.02986141091266924,-0.04741740021121004,0
-0.021566763754763234,-0.08729610904537005,1.088140752892357,0.036056768127279086,-0.04581370502818625,0.0677721400552748,0
3.060468256203123,2.7848142934697466,1.966276720722409,5.193611755172588,3.157695156550851,3.902091311588268,1
1.627733555696973,1.6548618833813977,1.9082298389917671,3.8850490685081573,2.017768576322691,4.151665583047476,1
0.011327041053776446,-0.1438277978317367,1.0919228934575202,-0.0334072042769497,0.09366488881087728,0.05400240328573243,0
1.4365832561003673,2.015810986955124,2.1358417922500155,5.590795742171252,3.620634760893454,4.04402512944238,1
2.4903408478640823,2.0508150267667125,2.5836088666521864,5.588447176240112,2.8150128208562526,3.8011817639881826,1
2.6643220129024043,1.7130900430449407,2.3915778280065876,3.431123024802631,4.9086194934459195,2.874253702504227,1
-0.13044695005048532,0.06696725488300385,1.0366598246096848,-0.046993989316367765,-0.02569334586683468,-0.05296067609444758,0
0.02575503907227644,-0.007444591576616722,0.8081228784700958,-0.001325693772460844,0.003011510497051322,0.12316210562426431,0
-0.0034684887386781183,0.023421473253652077,1.1550500492814078,-0.04991770203693955,0.04921611992382919,-0.010699442211275449,0
0.05333592447054494,0.08394685045184047,1.1218194711754257,0.052868415268911256,0.04360985000364889,-0.015754336559705432,0
-0.030803428418574128,0.07796605322693399,1.1310308746119608,0.0697841905394978,-0.02810840132891511,-0.01046109368722639,0
0.047558843592858245,-0.1746895691345555,0.9461239162653904,-0.012747348520179468,0.012808530284713907,0.0596655502963563,0
2.2811313387978376,2.090994941311399,2.2197430240042557,3.901690152545624,1.6962495159075037,3.331470896330895,1
0.16350663945275196,0.13116934492726612,0.8907858406571267,-0.01268380387711905,-0.017258235272489823,0.02446272675381638,0
-0.0037634702424848366,0.11033018820165215,1.011422764866204,0.00751508807309388,-0.018180610610692795,-0.002847281186053373,0
2.9226366485210478,2.3018907347764794,2.757659047161901,3.458226763988398,5.17427076607113,2.0990788814458474,1
0.07313802525749924,0.05904220612514635,0.9857853463059454,0.0169343658960845,0.051472874079917866,0.04361576900142252,0
0.20236062192296395,0.0006799844559997769,0.9809960964998505,-0.01787227114052136,-0.009019584088120392,0.06864242373382651,0
0.04632062920991231,-0.13671378064602457,1.0848174212666668,-0.061626165738425456,0.027614996883976162,0.03128154668230004,0
1.2538051742084664,2.3299248060522824,1.441529557948818,2.952225053860901,4.187902082892398,2.65283851758155,1
2.524664082897422,2.3612234926104896,1.8173595708980574,6.387967705524732,3.6800710376959813,2.727066679774487,1
-0.07165734884241053,0.0809594435971886,1.0530894314215948,0.0429069535467008,-0.006156821767613381,0.030129013398917045,0
1.9738352651984024,1.7622327766323225,1.4033121157283424,2.1668295483012727,4.5179570524293595,1.7039513071760717,1
2.8665896587112787,2.6890713402488062,1.5046883883113713,3.656808431313288,4.258981695460113,3.448078341012892,1
-0.09087696708079734,0.1684524834603452,1.0842297327013903,0.0011597989278687411,0.06755078762435002,-0.07562644826494379,0
2.631877792411288,1.7206002139688297,2.233626107591395,3.455703853685708,2.9955773167028306,1.4801072003810152,1
2.38920015280748,1.2795091827375407,2.479408153233836,5.127686294516429,1.5526575258591857,3.97845780566655,1
2.6706079212460168,2.7501373045004938,2.0372547969133863,5.025632113872582,6.14201191049262,3.5980991550474664,1
2.1735249220839594,1.7251053201809834,1.842366833041872,4.2680504275897535,4.215174390128058,2.9488813069846223,1
1.9657396229587807,2.172707090821927,1.8079091671465122,3.237866551485902,6.085975175683895,3.41905073475346,1
0.03868085206892027,0.1090980425185967,1.2012270445700766,0.05118547730534907,0.012465429782086444,0.052254423704237676,0
1.3757517327501723,1.4374518364884854,1.709629454721775,3.9965191514267984,3.3549663084715777,2.8783113143127306,1
2.915749433465831,2.3990455243307807,1.2879161999062005,5.911606067063322,2.8588350706031496,2.7349350031114206,1
3.089126423774001,2.2040679563891783,1.312182955606819,3.526354542348809,6.443048335268621,3.7244910603817276,1
-0.01946972961166817,-0.006418817710849775,1.0091752484448373,0.012612019821333871,-0.005811452156097909,0.010735659158526319,0
0.09976320769202446,-0.02867942357382693,1.0759514887486108,-0.014587931612926859,-0.002991307176495185,0.02467801021671458,0
2.4760071025747092,1.316336769357522,2.1581368901298568,5.366214785205788,3.7809284969478263,3.808988609229009,1
0.12710653260070334,-0.09800623018406142,0.8382199386184663,0.019038903568252587,-0.04087040672071699,0.0160645735378694,0
2.456457636928425,2.939937274710504,2.2603780601793555,3.672193540123477,2.073981882879548,3.3938732181647433,1
2.927600753874131,2.1321451050766256,2.656891088285904,3.9845283592732605,2.632024577471668,2.7864067577949574,1
1.8177645731913596,1.535867080672002,2.4048287650741207,4.230711749074962,3.6017883337073275,3.3063475339320227,1
-0.023130094292969944,-0.05764195763348439,1.1471034690817103,-0.03497476100838216,-0.05185330367849981,0.0332684467516415,0
2.809034246965021,2.1732635091565,1.495783489734427,2.4702510449959085,5.03739673068429,4.414110390606782,1
0.08227827808340026,-0.09626510119189763,1.069276903184886,0.055291653314735636,0.043071826281640246,0.01256583241190512,0
0.09324348709546673,-0.04151002889633696,1.0700700612120584,0.14073272222362765,-0.005217139649344596,0.019665352500266183,0
0.049331790088088925,0.018483612369487392,0.9141642219818786,0.03501549397044957,-0.0287818913118887,0.006100490732268073,0
0.050596555345586526,-0.07282722024066131,1.2165056067806603,0.05952742971717981,0.010628701531610746,0.051349313165986614,0
0.08089192693927194,-0.058445529185043824,0.9250642310577223,-0.011076829879186909,-0.058848105638498405,0.09102719539709078,0
-0.10560307999666677,-0.025694512512178153,1.0307832372513885,0.1034113020752912,-0.06989027392121486,0.06012882526126138,0
3.3849565338277965,2.454981270430279,2.3200133091921646,4.356412583534376,2.838862887809028,2.7994288193442314,1
0.10287689914234806,0.05016850451687882,1.0248325142515882,0.0039058867618008176,0.020011792776338758,0.010082645256462732,0
0.04240668615184512,0.003944704824073949,0.8564090476131472,-0.06579079082137536,0.014050462514090315,-0.10662978130774181,0
0.16122782579886455,0.13149144535840473,1.1639964529371394,0.03710637455359461,0.0037716819450796402,-0.08009829059485843,0
0.023561455810856596,0.07708651938869669,0.8521413754220158,0.05718770216034646,0.016924820374720706,-0.020764395695040065,0
2.431788924861192,1.6108457234967484,1.7782852908824822,3.729729632325391,5.112868370707128,3.9466183083304367,1
-0.12276799644560572,-0.059127800936970565,1.0358344511076003,-0.05982789643083433,-0.07467548891265717,-0.10619737913503324,0
0.061577114977114156,0.12038844371688162,0.9860553724319,-0.022509463242570582,2.639794282986464e-05,0.030060337446455743,0
-0.003582603910995154,0.15646436558140064,0.7380254895910255,0.04109512521876119,0.004352353411908562,-0.014950367523293373,0
0.06030946849488336,-0.0850535278747044,1.2485189916678892,0.013238765548898981,0.06376953689995074,-0.007585721678861457,0
3.277141220805513,2.6848905509811893,2.3672129264048336,5.422422955285821,3.553384272479022,3.628102969833705,1
0.04037300903366095,-0.0024195606390916167,0.9096298139269872,0.01621796408608015,-0.05895198955799013,0.05938396942307819,0
-0.04485428365278614,0.023855495377373918,0.8709438578053781,-0.007162945768209632,0.05482735591151269,-0.10956269255826406,0
2.801856620272098,2.700750173276079,1.395570567689639,3.4340628691075947,3.4243289273429367,4.5375513190343435,1
2.6035697183892843,1.8803634264240743,2.739060613049742,2.5176032130042314,2.74865453039663,4.520091740991101,1
2.5164316869901064,1.8086107991452207,1.9417558236844825,4.489211824664301,3.9404944961633377,2.9249729996031992,1
2.7045324691670287,2.3333139417284454,1.3250371810693635,3.544801095183841,2.152746082418651,2.1012001897561623,1
3.372929485136568,2.3613374124441493,1.6233981092045147,3.886407838298035,2.956579570223483,4.263855939096389,1
3.4438125603130025,1.5173929616247261,2.1193689626456784,2.7261626748657957,3.5146940955443666,3.3861664979983885,1
2.461880491339701,2.748440136925428,1.6944574687616412,3.759275696010949,1.7988595257327582,3.3740620881310437,1
-0.17710685530880912,0.047154238041820576,0.816885512166165,-0.06142219156328813,-0.10377940045392667,-0.004303484639544653,0
2.204426585037195,2.1643411747482415,1.7313187053433001,4.468523602818836,4.7160065389114765,2.2806783131918262,1
-0.06354098802287371,-0.004129268700728284,1.055602209684229,-0.029564239440094727,-0.09232865239022087,-0.021432726345826665,0
-0.001901620790268883,-0.10025293646378089,0.998148686400761,-0.014432931946006916,0.016135928016904475,-0.04136154717761615,0
1.4426532004631323,1.788049463833702,2.0316160732565507,3.7241600401035435,2.341396736340515,1.1843510241211825,1
-0.09905363251306884,-0.05662977296027719,1.009965136508764,-0.02517378270580996,-0.07753317155330663,0.0034281487403013664,0
1.9465648542329717,2.667253066668919,1.7264041055587545,2.748643817760713,3.069003799780187,2.7613944682853724,1
2.653519618625911,1.9743820822339042,2.3127922968375003,3.7767284115666904,3.1927537743382683,4.369094582762852,1
1.8957588978654618,2.20604173243573,1.4434679494064113,4.433063946741319,3.313563584178446,2.5206460573439156,1
2.9165788833147173,1.684875352497782,2.432124192349318,1.2924561446188227,2.780010466778061,2.0759371926589347,1
2.884515827721138,1.73630546918019,1.9974466839863876,4.398763764424814,4.2851850823103765,1.2223190376297988,1
2.9265075941217487,1.8609400678168329,1.0481202971777033,3.517122280708865,3.5437103969919836,4.222807922133408,1
0.014088624691120395,-0.17684393655628516,1.0323167714184782,-0.007380129314933434,-0.023301825093412113,-0.07973515336333978,0
0.04998641237403714,-0.13993061748019417,1.036764929299142,-0.10500132538258121,0.03127540084155179,0.044261574149449555,0
-0.1338605799723249,0.06929186230316112,0.9394139179241107,0.08596889531036483,0.09962576765840592,-0.0383328293891674,0
0.11701987091966037,0.013429649724779289,1.0079597862376037,0.02770288855579536,-0.04308515351281291,0.0015015739582041087,0
0.18325570434792018,0.08141517621182666,1.0482066727335386,0.018436657365875988,0.01968986491081258,-0.0963836289672805,0
2.988215688599034,1.4339254296419965,1.450541872635903,4.687426755126504,3.411455785416987,2.5461085838468716,1
0.0791031947043047,-0.09093874547947389,1.14027943109361,-0.07009255313961404,0.029342854690013517,0.10952278129049893,0
2.835508902458885,2.533998889029486,2.4694847343523962,3.9361221671686533,2.2459773475714835,2.001063623754409,1
2.306988601064651,1.5421224794332198,2.1248047291048557,1.559295985224916,3.315710998167288,2.794160140078656,1
1.9318124166480715,2.115824035805461,1.6719826208796724,5.111631474141052,5.103866067267866,3.679381373011906,1
1.872919506502198,1.7224916492279454,1.2988153582880875,6.091094272732477,3.4775639480194265,2.9420494582372823,1
-0.036003926875698276,-0.07280770978553212,1.0373348559711397,0.015618910523328587,0.059636758270820725,-0.06289340779544439,0
2.4424058356117606,1.4084572423751174,2.4669052130374984,4.503232384532496,5.805636837367189,1.984418620349455,1
0.014304876987895235,0.08496119885162132,1.0692857584237436,0.029128565940440262,-0.03999702533509671,-0.09540010685616539,0
3.307936245061157,1.517553349906808,2.1064121993349842,3.9896477100922634,3.3261261796854136,4.338592138295606,1
2.378666769286439,3.2901459493453875,2.2716284824871367,2.1924103508185424,2.810344495099056,2.9467875637270167,1
-0.2090302898853157,-0.017025824679590552,0.9734395439713894,-0.019993911933418575,-0.005732041775319623,0.013213413582281827,0
0.039069592092814416,-0.1326472128311083,1.104731770662145,0.05847949962138868,-0.011469537203401388,-0.0021738474906931216,0
-0.01767741631157821,-0.15486182988637467,0.9508846252857895,-0.014243774668483542,-0.012808987624769006,-0.012074872293538942,0
-0.253028752274633,-0.028600422188011083,1.110095963499857,0.0979173727110297,-0.06147747972262085,0.024834961161826086,0
3.437612694241694,2.0522570180379107,2.299086075167397,3.024467064385368,4.267937663516538,2.473609134889322,1
0.1592669998282884,0.0019344070811754292,0.8811036580465038,-0.002494007706405885,-0.05230605425312521,0.023670370785623323,0
3.216812509910473,2.0957253579786763,2.3310843769737497,2.5013645028507883,4.694214483013992,4.301102063024093,1
3.0886043937084575,2.917067282181195,1.1142887242780781,2.7701168847134596,2.6962763391053146,2.530270203510402,1
0.01263141994832002,-0.0469130854210409,0.9007133998914454,-0.07226026322061128,0.03331348360217616,0.028898926181977858,0
2.6334878915637803,2.8392869821743787,0.9379864620605745,3.309987400185415,4.965835978602963,4.092537833608303,1
0.26207930910299754,-0.11119670257741637,1.1464177238752438,0.0498429386732904,0.01403182022450682,0.08793102420975668,0
0.16999573745763807,0.10715431522348857,1.0190635591265025,0.04706552903837417,-0.05162619517637698,0.01989635249734045,0
-0.10550893681766951,0.012626773623406818,0.9015345215152737,-0.03962617235576063,-0.021179929086408856,-0.06828087020950747,0
2.8067300828359185,1.9837480534711553,2.415249066992976,3.0942027866288524,1.7205610745765691,2.466995918173666,1
1.7767508982296563,1.767462026899497,2.542250265145463,3.9748113164705203,4.127680417874474,4.664641821966275,1
0.0037541841486821454,0.10918053390746457,0.9929779638482383,-0.12611389587439753,-0.007598369115801944,0.0530071909335635,0
0.12012139221639449,-0.04080753730215514,0.7961875464822146,-0.05040431554587021,-0.09353959605129279,-0.017575674202065433,0
-0.05663945912147233,0.08316167861804036,1.0209470083647774,-0.04922670252409841,-0.0002977354606364692,0.0392001389655374,0
-0.06073544332122114,-0.007722104522304558,1.042584365862983,0.020910287794398606,-0.08880058770242011,0.05319704937804281,0
-0.025879606266710237,0.1598647170504717,1.056091944794124,-0.014774015901458019,0.03484772022553678,-0.0166909744878005,0
0.09495541354413238,-0.14848979684499036,0.7446078865098045,0.04671599556196369,-0.06834393492077105,-0.011238270094634177,0
2.596309573793468,1.9280000111491695,1.952863641384517,4.181461063480639,2.186472201646006,3.0395697241336483,1
0.1191707497107065,-0.008371795984921201,0.8880453871616831,-0.019676492798486444,0.00893473584052378,0.061460739214852525,0
3.5556481670497924,1.5697172980930565,1.8384788156134966,3.632762999200714,3.078643192229558,3.6213467399691024,1
3.2580580901775216,1.2462235276832896,2.0050105758702848,3.3113055665547653,3.1890285335139277,3.4025162097353214,1
0.08635282425215213,0.017146931759039096,1.1152648103261693,-0.0608701896748476,0.023397521106592586,-0.058514035319838745,0
2.0592831473865023,2.0451548996032174,2.582205870267635,4.92567675771387,3.5343333885688355,2.6375009971179315,1
3.446095880416534,1.5581404296544685,1.6134851451986485,3.1292722283562586,4.224591778723123,3.4484854541964403,1
2.973403783255935,2.027501468016687,2.21121748645072,3.533811388053777,3.1327960657882516,3.287563905167328,1
-0.058653126956393555,0.022421640429079303,1.0714609790636618,-0.10249706392887391,0.05795370324779489,-0.0168127369340536,0
1.3105019796233879,2.335024835907762,2.4926998557250246,2.4141543596141526,3.6764841836629527,3.451226016136099,1
2.914661886291431,1.684174237743178,2.145601377569016,3.636426705084971,3.315967600800997,0.5121779424376687,1
2.806632772330572,2.5688883903343314,1.2893250273407264,5.7522919091220315,0.9910428215049243,2.2312335899614792,1
0.017521141890851206,0.29852590026034104,1.0367481665474305,-0.015676484308619894,0.046090075098862614,0.024134394360460637,0
0.05228354880354996,-0.0573700003938579,0.9975645407739017,0.10711351793059319,0.08637715850503558,0.021816183483701606,0
2.8312680166993065,1.5885720492407838,1.480389918004617,4.817981544453861,3.896366956467351,3.169747767970662,1
0.1360658595838651,-0.13088203991191122,0.6980487844179175,0.009192477237684743,0.09002555907554269,0.06194731764697187,0
2.2140357269007835,2.407662083404507,1.40939941342556,3.377386100040681,1.7109876094985588,4.007117823412373,1
-0.07239903317426091,-0.0195390351177024,0.9548050628088123,-0.03946692528598372,-0.000352249274027735,-0.01078047892840112,0
0.1186734620177331,0.14363354057059785,0.9761889563687945,0.002300137362663706,-0.04523071874968831,0.05863784226337224,0
0.11186323341542118,0.0013043374376952134,0.9820748974643089,-0.005500274935052574,0.06460301671632614,-0.037458586330162094,0
2.183363647644864,1.9516199484065553,2.505419867510157,7.529055187570484,2.255513550111134,3.44982721372651,1
2.4958196063642717,2.487918445811909,2.292476746543222,4.056706648839265,3.978847573217735,2.972785867622143,1
0.07082144232565572,0.023321613126350168,1.0953136633913245,0.014356208260091211,-0.030621868732021898,0.01807517626030508,0
1.887806363321023,1.5536133463619246,2.8670209772113093,4.384209221649463,3.607760055452543,2.750106264187954,1
-0.013216935564437185,0.007227896538428889,0.8499778138553064,-0.03894185214102174,0.06755364462065697,0.04430955942923978,0
0.0650201177958661,-0.00991758637793829,1.1846636996047666,-0.05350423831630763,-0.07627625854623694,-0.034595403494062225,0
0.1328194141849058,0.055623000940065996,1.0455887772081607,0.1082501172450542,-0.03217591151900715,0.04639200640406186,0
0.10391117874202688,-0.007576428653545989,1.0670480617241211,-0.05359286165200777,-0.07768793830080323,0.04089448290125144,0
-0.13598561409799192,0.07462535660272207,1.0645484181141076,0.10816273616527301,-0.015388911747650042,0.010957516383196949,0
2.5869736042064058,1.6909124789499155,1.1904134717420676,4.6297395144087385,3.234079925804448,3.5568747223681454,1
0.08406435489887241,-0.0652623979302391,0.955381656678522,-0.09447703654727656,-0.022615315962453836,-0.12119396633144784,0
-0.07859860326349824,-0.1381044603153775,1.0303818595604877,0.03607812525630718,-0.01154331869223845,0.07266303316605172,0
-0.21218548990085948,-0.06078219870944325,1.129699454656111,-0.0011434031149441062,-0.04996511161474554,-0.025238746061410872,0
-0.048763342095496286,-0.14362538649281179,1.0693923233191258,0.03582946698798258,-0.08651313652421726,0.06669428727502864,0
2.287700916988929,2.1988187508881394,1.768631676001831,3.6929516590748985,4.643566044928613,3.1064939802900917,1
-0.07591326615536981,0.015039378647620763,1.034175597577716,0.09380854196079431,0.04752119190930251,-0.028845182783120156,0
3.207602263350912,2.9209078046933037,1.9273252888430574,4.347397486434762,2.5119971819970592,2.8528072492319887,1
-0.07170161491279363,-0.12845842656999693,1.09778155496862,-0.10528234709201623,0.057679517165846274,0.06931746986314218,0
3.0200289453966946,1.4905650214666324,1.8861145104381827,3.059984067876246,3.113887223913858,4.015220891814305,1
3.567660561987979,1.8317275393954444,1.845892035919585,3.6532501089917573,2.855104141355662,2.2705629511523506,1
2.15961221683741,2.146132728077856,2.664767121985262,3.410576588513109,2.6385565705357137,3.097488939023697,1
3.7541531365282816,2.903429442073256,2.7469640718210986,3.6693413376236683,5.926178003841775,3.3683520038409713,1
2.250063784794574,2.271516139644826,1.883051099773203,3.803906789323062,3.9096853437465495,2.4030064115790677,1
-0.1271919001112723,0.02113965674706589,1.1062657290787525,-0.01878168328827678,0.06755570449933576,0.06463726447591035,0
2.8046194154448765,1.8340675690890105,2.1623907970550573,4.479939741148279,2.4928050124730214,3.168230541183694,1
2.015758176519052,1.309115405716148,2.3850250544587928,5.506147240774947,3.0611500095218287,1.860938492383649,1
1.5177319809485377,1.2594271376891422,1.998815541933596,3.4563931039069473,5.492036635959309,4.833896546024375,1
-0.1801057734152739,-0.054267379973402176,0.9212216248091761,-0.031042379912555804,-0.00840719092923948,-0.02360452888485637,0
0.16777008140764407,-0.05535882417079946,1.0568983079185275,0.08141983115642691,-0.018956387049374357,-0.01017901800511809,0
-0.19792998103757878,0.07479102561175338,0.8927256974260194,0.011962343205557478,0.10370413348749868,-0.045969229579321175,0
0.2560084538268795,-0.009605989972464988,1.1149273326285676,-0.035158821256294374,-0.001749424524848085,0.0885400317817755,0
2.298844988623639,0.5031466986696886,1.584356052259055,3.5090510502681336,4.884871093794044,3.396627939221457,1
-0.0845153958426159,0.05533889830744268,0.9966074774072091,-0.07973779790816662,0.021034981550923943,-0.02889603884163553,0
3.103267861727151,2.1345263465078537,1.5499198860631687,3.5865512965282047,3.78638674395539,2.811405170852512,1
-0.13192471945987674,-0.02029806373956571,0.9199961435602353,-0.003176228730767755,0.06187190673420696,-0.022865082754339502,0
2.1535214977343924,2.513043720480002,2.4218950129407877,4.316087822108933,2.829456838583317,2.848602508058591,1
2.9450288662377297,1.6963692929569578,1.899899372849815,5.399227950071159,5.03914234581065,4.572398210270327,1
2.288154641544662,1.755421912407892,1.7310107355890225,4.466444596840262,3.579047802150279,2.7118439694888825,1
0.047950754800160866,0.07289411945704503,0.9307649225766206,-0.03295196374443225,-0.02870503376417992,0.02682069499456717,0
2.5080623939502362,2.071653152500002,1.74204734343383,3.0746077423570437,1.7445621026892901,2.3048506419231276,1
0.10094717885959688,-0.08449414385934964,0.8500984039541599,-0.004592238216747756,-0.004371766438859054,0.027415981377724937,0
0.057312781324120016,-0.17858664919341113,0.9640370327547537,0.015055366959587105,0.009191725816125219,0.13465168319902485,0
0.0242882013150275,-0.20820987031889873,1.055314915637921,-0.027410014908338633,0.09617228974124767,-0.0387307485009291,0
-0.01134806458821412,0.02215584736242106,1.1234751914044796,-0.05159776210472175,0.029774544881962867,-0.029494737823144546,0
2.9765047491070247,1.850061262751694,2.230207824921412,3.8604579570720965,3.756783257324723,2.7715274561904595,1
1.5940053312189728,1.5246546532923724,0.43074266688298013,3.8630104223060577,2.3580581808386887,3.0599052567964384,1
2.2622576294052785,1.6680834485871547,1.8794683887671095,3.5659666456764,4.053627409358232,3.4203098174852045,1
2.2880832308967585,1.617194421484906,2.367053167903624,2.462292191469998,4.06477626431415,3.684486133552996,1
-0.26357477390168776,0.00033755065971609994,1.0327821172843086,0.04621350697689149,-0.05069479761462689,0.0042843580701679524,0
-0.13307051313309262,-0.21779677321946878,0.9300585459876712,0.008084926335237646,0.005142928896616704,0.007467095552994023,0
2.748317307489948,2.317550005798963,2.200084802600249,1.9859367257622367,2.6331154151165332,2.9703112097140214,1
0.08406200265045531,0.054673356820137936,0.9761067900830306,-0.01834122059073438,-0.019587907452191095,-0.04612050922492513,0
0.005664992489710717,0.052969275435673084,0.9929501221940908,0.024325082191310098,0.003223720740506012,-0.09877332831769357,0
3.3326261169723477,1.910646557718252,2.3124089115269375,4.804942573637347,3.402654031107267,3.7787743079777822,1
-0.0294455757588034,0.1452755545126183,1.1528747850540908,-0.004052298236087188,-0.050422436627367485,-0.10429489388666686,0
-0.019490828035268103,0.11337700968670646,1.0593556722280861,-0.14701943173321402,0.03279503882648805,0.009736809735938743,0
0.10857863249393472,0.009798315347089545,1.0308050539504103,-0.019582428371089557,0.013456347062255368,-0.017159613774870526,0
0.10375399442578992,-0.05100163988547471,0.9730125064706628,-0.04893818578911537,-0.02221466300380558,0.01886502465224261,0
3.136214191408298,2.1087029263635015,2.427451961318201,4.009395354575849,4.556288483746123,3.397527756573154,1
2.5245473656528357,1.3241462339876766,2.34294522821896,3.7377664306171443,3.064289167615263,2.9671255148475657,1
0.09757133776692502,7.555074545955481e-05,1.068585781860842,-0.10768652868957307,0.022349085850492598,-0.03192929125725151,0
3.13551504971557,1.8364632845681068,1.8510253175933884,4.453221902282897,4.974482007378255,3.4086107475639174,1
2.761260383221195,1.6734313050350296,1.4905974012046432,3.18531434676233,3.0446575768546875,2.646141037179896,1
2.888114252362053,1.7580332775243834,2.6185904001445044,3.7455239233546584,3.0419748169854435,3.4753349254274912,1
-0.047579544400490115,-0.08261119917145421,0.9312985900300502,-0.06752779821714916,-0.003793572534251166,-0.08423337886131935,0
0.043494103836789866,-0.039398668124312045,1.0537768190368484,0.015319474103670704,-0.04991533876455275,0.025939650872586064,0
-0.058989231775560785,0.06986888135170435,1.0025210867540082,-0.07715591139714352,0.008214738268528454,0.10981115710763996,0
-0.07955570679408824,0.04243939378610126,1.1279518669760158,-0.11084094196770322,0.025137240374540733,-0.12466354101650388,0
3.8574084697431608,2.7509395668981593,1.8694956379138432,4.009426360563773,3.8029718735872833,2.410839612011058,1
2.722447947504942,2.4253596972303235,2.4459315110803743,2.8867051658853686,2.842964762982676,3.9945582357416214,1
-0.024861585376667737,0.06266136372630708,1.00455638811419,0.031170356913995778,0.03517200665694471,0.10774643386915711,0
0.039445214237829686,-0.0420984480820263,1.0289774856896412,0.10377003993227195,0.04355623517158462,-0.016301176608392056,0
3.0859050716369225,2.7490488167438922,1.591922505485978,2.544945394909448,3.801960900171765,2.452592477233127,1
2.40638633924656,2.516328758311006,2.726920118560942,3.520035357287791,2.778430917659971,3.1388560324308803,1
2.260722866641141,2.257830315041697,2.810936873892526,3.480165854274774,2.167550219001795,3.6314186062724065,1
2.557798369339954,1.985116755831799,2.160792270186378,4.116508052475871,3.8796996774171126,2.6885328051007984,1
1.9329144273611047,2.5145902180639834,1.1029282444006998,4.539764512828342,3.173464147465429,1.8290751061925463,1
0.21898029332176724,-0.08082982853551515,0.9160278157819224,-0.02996963227220111,-0.10619478621549035,-0.026287751084038052,0
2.1848839631767802,1.2147624773160146,2.4856721422707406,5.395101906502298,5.057160889698659,3.1870077214747203,1
0.05555126463422483,-0.09186865114860944,0.9582633186394915,-0.014754495711895316,0.048790835967235456,0.045922722197120694,0
1.706405965160773,1.8963419519958777,2.3117628994129293,5.805416846419781,2.302042037659338,2.5734287471694266,1
0.007557637267003783,0.10488641418753622,0.9970783594146014,0.03875575607945431,-0.05227647428370266,-0.001313039663492607,0
0.06863535550145332,-0.08388926740257363,1.0067838513916938,-0.10099636660780682,0.07209725029009449,-0.02561871203383468,0
2.669379081140183,1.9358008670411955,1.9658568961178546,3.736576364880496,3.1977306079174737,3.530867162067149,1
0.07209969529056358,-0.0545186244726322,1.292727009247333,-0.049717753281543674,-0.04607255117144607,-0.028269648514270076,0
-0.018592448094877072,-0.15993947621943114,1.2277086498053305,-0.061725599921119804,-0.051598314192358975,-0.022012960219320022,0
2.546027568655996,2.238120176693833,3.264963874625976,3.006406996068552,2.379582081063611,2.245133803428079,1
-0.002549412858519966,-0.021715880713685663,1.0058370290817895,-0.030192946561847733,-0.017160296342151885,-0.10428962194525021,0
-0.01314725956716678,0.08260471714415063,0.9563235762761783,-0.08032885503693397,0.08747919521027103,0.06907270393452433,0
0.01493634822711889,0.036414029605466136,1.0007178466907942,-0.10432388291855424,0.008024481198674004,0.11062655196986211,0
-0.0681380235069574,0.09678260240252042,1.0993782214530439,0.06869571926057248,-0.04261933830370518,0.023768280534600512,0
2.172733214500845,0.9752427419058374,2.1867668417058845,5.455434483915325,2.908981544266568,3.440059929023145,1
-0.07925207384327007,-0.011473644146689901,1.0504987278980458,0.043287759708506075,-0.060014820352788815,-0.01672506179204742,0
1.7614177918438092,1.7448544202184684,2.551346023037189,4.177829799705434,2.9702322940769594,3.8048559381800797,1
0.17976865268495226,0.06408428612670099,0.9428821010217203,0.02862913906780793,0.06996777182930011,0.04623168414563844,0
-0.12422465335492293,-0.11255871140319691,0.8903779675131435,-0.003393569084974095,0.02158158148187987,0.036983773405891686,0
3.0261055779785293,2.0487170551486513,1.8865287669310378,4.400000005613567,5.78879066088029,1.2367633010965149,1
0.07157342411708405,0.2394361900582451,1.2185094895036113,-0.034335767150164766,0.08119424964055762,0.01915840948794502,0
-0.09393353938187543,-0.014408755572161548,0.8790305257158892,0.029996436499810226,0.07653754161718487,0.060938092584865836,0
0.0012499321907250335,0.28684030556667683,0.8331400741121805,0.052936426494193944,-0.008640086869823219,0.038596007741833756,0
-0.09587784561867749,-0.13525086894407223,0.841641161021242,0.020649945606889878,-0.01070338488639307,0.018970269880255488,0
2.9588840988975686,1.8448019317622433,1.6715822656527848,2.921684933370772,3.8589175837406593,1.9602067754717654,1
2.2566618385592014,2.471798888136473,2.3532527317736265,3.9808778201462927,2.954038072885072,1.6503503297798594,1
2.8486190231951563,1.826237528740571,1.4217223914663317,5.28123865352298,4.71644738727708,3.1555116037635607,1
0.07197579421481819,-0.12932729578711638,0.9043563623181992,0.02362031389401887,0.07420580142679825,0.017780667439283,0
1.9179746837970872,1.821004782793332,1.570193243060773,3.1094311894089857,1.3901617593743585,4.33932658948,1
0.0386382653848061,0.08377642215465891,0.9320769346807045,-0.14571279949084706,0.02616115928685166,-0.06101603449719879,0
-0.011312805251574042,-0.12992163634458243,1.0232786742940163,-0.03783819885079632,-0.10949608524892768,0.05972961102568654,0
2.2126990709083043,1.832110691129789,1.8414485837130172,3.196565725828743,4.07122421023624,4.390643595949957,1
-0.04511588584089988,0.05517407999109204,1.120026174973883,-0.02315806810426995,-0.020571330355800124,0.05769503671278736,0
2.59910866386041,2.162629749114791,2.0742739517963193,3.698266946041364,4.4330666057209855,3.0635419045609376,1
-0.06143231440962944,-0.07097889922335351,1.097888955855678,-0.06858715646317529,0.08043904278671868,0.04141148450923114,0
-0.09163209190734198,-0.083692070379628,0.9859624941094663,0.015380633409459821,-0.02622835068835255,0.06761013394335723,0
2.2053731346024663,1.3732991408524908,2.1979571104790225,3.8828279950256244,5.074146786032409,2.654092719333172,1
2.6912166578462675,1.343918399402241,1.8014423342160737,3.958528222000852,2.400960775468141,4.796665201675017,1
0.09153902755601617,-0.054954027459553495,0.9883234084204753,-0.03177789207022017,0.08694256759266657,-0.016062138305895587,0
2.553991960362614,3.3034295815748846,2.0967031835948586,4.059691880579736,3.6061829194402164,2.362191307140064,1
2.6227493408971565,1.8724064142428583,1.147689020911442,3.916866474278506,4.323423184562311,3.9456334275676297,1
-0.10258681059694763,0.006233134961912297,1.0107169915259597,-0.053925637068229865,-0.008764726495200643,0.019965880085956546,0
2.3161077367144722,2.351266656966928,1.333775826052717,5.171167632706147,2.0350252538951112,2.3315450891468226,1
-0.08937460190837143,-0.03879649689074522,0.9823866496449022,-0.1449756939934241,0.08356737877187381,-0.045068783994858724,0
0.06191542610051978,0.20574954697116987,1.0020793707675408,-0.03640014706145672,-0.009144822055242008,0.06874382095740925,0
-0.07184072655691974,0.08949243769444414,0.9705050321707972,0.06238710363368669,-0.03367453121219343,0.013949708111190099,0
0.12357821918221541,-0.10710536796490489,1.0680216105450449,0.059625375623898746,-0.08892937920032584,0.015982591295948863,0
0.03338599665685347,0.14313667818311834,1.1081766727672828,-0.06561095967157031,0.031103499515302436,0.06644666597677049,0
2.8955700021779416,1.8576022216762835,1.4109101563328617,4.432850402519974,4.6107531724146416,3.755184973803943,1
2.0203225196759385,1.4090022390510877,1.7310280168334298,3.8170984325760733,2.334558473778943,4.470661990652289,1
-0.11939250063990554,0.014294309476370677,1.1732514999485093,0.11156500730963162,0.03190255507203786,0.02504222374722285,0
-0.0731631738908528,0.18904406851557828,1.0049308331520224,0.038441983798444844,-0.030411325372237966,0.01815578138722617,0
2.892073208176749,1.5509863868377707,1.6169773987998002,3.538732949501693,1.2472066052686608,3.335968173440577,1
0.025988279424842355,0.07818228717773104,0.8763049289121918,-0.06602283065421381,0.026097078280844885,0.014849233661659304,0
2.5584150870860918,1.3572044996219863,2.440032981478671,2.5661941760715856,3.8301137904709437,2.1859893307084444,1
0.2169936588080543,-0.1423682636883923,0.8148157268425341,0.03917948323993034,-0.033932153064705164,-0.015911876387131013,0
0.2218780233448134,-0.01590452104000513,1.0295624488747095,-0.07583212747103957,0.07384672130591373,-0.058388977563396754,0
3.4918168262180096,2.005940217258896,2.193293114952596,5.3592975993648055,3.352860495185893,2.3433759292002954,1
-0.07341737987784958,0.008199555641356042,1.0457280404615241,0.07279111610733834,0.03522532699123616,0.039452834368775946,0
-0.10962750868952019,-0.14400508825942945,1.1594505063224974,-0.042348067415916395,-0.04956961747281536,-0.10766950568018574,0
0.008446678638994743,-0.10692544937550802,1.0956295002091345,0.1162336652926409,-0.0008503037241915498,0.025251054413688346,0
2.1472310263607697,1.5769801636861827,2.3284493531598236,3.2776525953849704,3.5599097740795034,3.1237546425242773,1
0.10294405559270406,-0.033689512678513854,0.9153565698541022,0.046283610475136086,-0.016538744801152635,-0.025508040682510863,0
1.9996853137583797,1.5724522627953976,1.3969888142959406,3.1140292661022233,0.6499698906828177,3.544582400793628,1
2.1998306704967563,2.2967697161465956,2.0015300583692865,4.584622952486741,3.737829540758336,3.479625319551573,1
1.423205943527724,2.1122100191911253,2.1748076655141926,4.133499419061372,0.5266938287074425,1.734363554910189,1
2.24668258310604,2.1199363761423626,2.742738684636275,1.9525628142292497,3.2792712430416335,1.6673215589747963,1
0.21221561970126335,0.1032465260551147,0.8480630034045986,-0.02421170364331257,0.06334555745933114,-0.03538347328093904,0
0.053200619882194315,0.03616610612470166,1.1761188124867374,-1.5683630588735605e-05,-0.05909370627104006,0.022473695641615346,0
2.740031808952052,2.6915972576646716,2.633165133978144,4.709932748147238,4.138543317267599,4.697623779709341,1
0.20958435018091592,0.15944423917491968,1.0678946987762232,-0.040620117446871,-0.0024514670419018367,-0.008018004052241538,0
2.003565647310651,1.7253806733437123,1.8764602815961402,2.8703325406894633,3.0091935335035798,1.8690126115144137,1
0.06373246830230726,0.16163000427219165,0.8607264527833003,-0.0017275311976981758,-0.08083566874740072,-0.011469116592773361,0
1.2395764967136327,2.074404380839795,1.8930367668244172,3.023054260618118,1.799372750348622,2.265256786527291,1
-0.025256815139316033,-0.12477831819648495,1.1632411303931636,-0.07150706889803164,-0.02200222433484919,0.0065370288643045674,0
-0.0643549832317462,0.10299608175811613,0.966522466789346,-0.02018242316209984,-0.04775612896746765,0.021179953279673053,0
-0.08084936028931877,-0.05017570435845366,1.0915402117702073,0.016437555482984225,-0.02648801018835194,0.025663371655667806,0
0.06515219913395058,-0.11376856704248167,0.9798508466052482,-0.00032606576147290313,0.02993971947809551,0.033417024435904046,0
0.05646059258936003,-0.10196643386921156,0.9976447849125762,-0.008717712895141793,0.01126539610204708,-0.01847634644166793,0
3.1877984821521044,1.7979523440838001,3.017765728359797,5.992094407497453,3.3688886613195175,2.4224657359807873,1
-0.1027403551526011,-0.03732682459413141,1.0644518491645292,0.04641228456721623,-0.024826586774098453,-0.0576746212992392,0
2.6363167571597073,2.171112789712173,1.4506603132828075,4.044569610889272,4.131224356971783,1.8487733424928559,1
2.8025665078794746,1.8598586434614097,1.3096739149449301,4.4120711370660235,4.025169313262168,0.6114685375223141,1
0.004091917539572113,-0.10021874557814728,1.0740824345420126,-0.025660678323579263,-0.01142999576700093,-0.04971746873042562,0
0.04254899332402303,0.1197246923645228,0.8628326302769533,-0.03547205012137733,-0.014427434793785242,-0.03918767605622142,0
1.7851378784848144,1.2895530073882784,1.8984157355076605,3.8393467136339257,4.350982678506766,3.757304223774747,1
2.873722485713528,2.1489380955119226,2.225077816973324,3.8956415505619133,5.2754908492400485,1.5208039816422334,1
-0.04464336145505283,0.01940899928983076,1.1073631749859771,-0.051325764970553016,0.0066484837073438,-0.035006040746958664,0
0.015712791899094084,0.017618982250269238,0.9333151283048436,0.009895833367103776,-0.030373614381015365,-0.02021809963450114,0
2.0732522599693293,1.6652815431832548,1.510846025088751,5.798480087138118,4.0529052285994815,2.063407993756358,1
0.12208212988130479,-0.08767737812118448,1.1712040284017893,-0.08738182549141309,0.02173850322784456,0.023771534126331175,0
2.418968948981588,2.597588705755708,1.7598927829338002,4.268850786400992,3.709348857334689,2.954955881989076,1
-0.03828171896129687,-0.012372894627483616,0.9602320306385396,-0.059201527911127975,-0.019994953106556856,0.0134647376290367,0
0.8894918220071433,2.197799417381471,2.017135907100111,2.31912954076188,3.8097267791360023,3.475751991831532,1
0.034980002456790754,-0.10040545968420103,0.9904535752910927,-0.0888123166733226,-0.004029987464838044,-0.04165280285003794,0
3.138928327515257,2.285243665431787,2.0508616042358847,5.498011770304427,3.1871635269484777,4.030919338366907,1
2.752182532859205,1.72935045251888,1.0115892155262047,3.504784901995265,3.1956551289460484,2.687071032809986,1
2.4518938689797105,2.129465214112845,2.268403734612452,2.750435088075995,4.933633608817878,1.1403369594502015,1
2.1288068147846326,1.942001463839233,2.9489436463293526,3.8861874615862417,4.585222263661631,3.0385551687843178,1
-0.01831504710532947,-0.03566731341798712,1.1180640912452144,-0.03136567229756514,0.0022611354499991283,0.0025598950940542674,0
2.051707229676404,2.2867237466776995,2.745836929400904,4.724829373485832,4.422977565140431,2.4793693934377012,1
0.02419622715660341,-0.1913280244657798,0.8275082167486967,-0.028114376462048635,-0.05064155601672119,0.015712366629763694,0
0.06963874474567154,0.09553052085705108,1.0088406886291847,0.0738765040527631,-0.05708445570667525,-0.009682972963985906,0
3.6071649712782983,1.3261453848452982,1.8391236480048958,3.967518964157905,5.412688134356795,1.67515421906726,1
2.1335369809457325,1.6298838737256458,3.060496782922555,4.977847564654331,1.1148863013069636,2.4347412607895964,1
-0.003361256470371301,0.04547409121411344,0.9483570356112428,-0.00982332917140486,-0.010292971544017019,-0.03732891732701195,0
-0.04327738835883887,0.07938184671438157,0.9702623920756893,-0.012319170125727402,0.04931882529529685,-0.03559866136294614,0
2.0706491819709387e-05,-0.0009300321138614418,0.9672105283487082,0.007759534192948957,0.041254913233381735,-0.04335651078554502,0
1.7159278432899747,2.228606531846257,1.8033088511276714,3.2375820493970857,2.7396363587838692,2.60638841796699,1
-0.20778118198561968,-0.03202978045366419,1.1643378155804534,0.018032394571789748,-0.0431746802482467,-0.0015601744469541988,0
2.191612319240146,1.3260021078164157,1.697160000032101,3.967957629319513,2.3190275163356144,1.8483188909656565,1
2.120667399228614,2.3111895592365594,2.563196724861033,3.9013916009953227,5.501922459248361,3.044064634912938,1
0.15781180575621845,0.09854496856152184,1.0869154592496897,-0.022776976301193536,-0.044462041411416214,0.04776502791188764,0
-0.09727645167600009,0.04066220342226741,0.9827370865709165,0.03193385699401505,-0.0031786769593060735,-0.07254639455556121,0
-0.12070216478572156,-0.1075312393049238,1.1676393027208203,-0.047275343997136565,-0.057667525529797974,0.05686572711823647,0
-0.09938626748348534,0.042019154289499164,0.9143501762590801,0.00488351883741677,-0.06322492034774828,-0.08965532262672885,0
2.0988640830327396,1.7476831288553827,1.5984445830233427,3.268142691584114,6.221912147906493,3.8444558720716655,1
-0.06581164890752567,-0.030372602877666466,0.8654129076526785,-0.04096289298607489,-0.023811043677232954,0.04371945903563638,0
-0.03348029874445019,-0.1793921113191963,0.9433294891944948,-0.029991069695853075,-0.0328567481139029,-0.03488594519491225,0
3.2244100541688576,1.8424590360455384,1.8792847176375034,5.466782556898976,4.005557853215008,3.4362357048010552,1
-0.08692869869886438,-0.0010867137034972145,1.0137352479407036,0.14590867775300462,-0.009207290784160103,-0.056508936474234175,0
2.528255324232778,1.9375392023382172,1.8924018382199097,5.143398107149553,3.650135653956203,3.7124817644338046,1
-0.040930847409572126,0.10059245117964166,0.8872503901046961,0.056395449662678454,0.007724683279762556,-0.01682762949390867,0
2.4506395527721634,2.413211162095883,1.8873242574779001,5.666663259227523,2.8216653706645065,2.385856468752815,1
-0.01501169512538066,-0.12640061679473638,1.0486184791561939,-0.09746858776612116,-0.10251787286421002,0.036959024735078394,0
0.11356201471829441,-0.11062935124116342,0.9175485838472326,-0.03042948616198502,-0.026448885403200763,-0.05282788213801264,0
-0.13776693679570912,-0.09378250399151228,1.0515035267208659,0.025689297545610442,0.0257523843153024,0.19263657453273608,0
1.6289587711470181,1.7723897095586474,1.8706177940638107,3.502947513164318,3.554694865374626,3.4414197598929506,1
2.666359664792594,1.3334259957613956,1.8763320180517908,4.3332305349900215,4.799149820547667,3.6675480803699956,1
0.08868873900973004,-0.04207617936810533,0.7395786143372866,0.009947407339824728,0.021836927586675478,0.020214737748084882,0
3.3126651545375974,1.3191624847681847,2.8461565095524377,3.7402788289234676,3.5353714170886392,1.9132891886152728,1
2.5231058018354586,2.3744680569029635,2.7470709486334126,4.201394558715281,3.306844775150421,1.0216150834269158,1
2.430832358991811,1.8112882994348352,3.578885641522149,4.906787272932399,3.9131474759526226,2.7667915017936062,1
-0.16885051880685,-0.11200474224698723,1.0670911248276875,0.03018952601389471,-0.01959383826934332,-0.050888215453847654,0
-0.0971656734541286,-0.13796181647889305,0.9373282775410035,0.04311967361913794,0.047656252268804336,0.02565427100486465,0
2.40096318492532,2.650312700527979,2.433902729771223,4.22740507899162,2.6101552290588583,2.0392204417551096,1
-0.2238231233324972,-0.21207001526350663,0.9393134822142825,0.022884329302677604,-0.13737524213626173,-0.024986508807581534,0
-0.12221278088919454,0.07129984301723881,0.9759674601841865,-0.018741040377479878,0.03554799841017458,0.022213165574301988,0
0.15792128155073915,0.07674347291529088,0.9530525614065047,0.027128002179298234,-0.023170884640623113,-0.023286487678512845,0
3.0304000359029737,2.4497806883691537,1.4908730492911357,2.9140368292582934,2.7987504555959237,3.976138690066921,1
2.340849492947833,1.7291896183454063,1.9564923883409313,3.416877168675702,3.98674150215806,3.1973134122902667,1
-0.018047991359062567,0.3193107567844861,1.0298752908365687,-0.03758955250475922,-0.021317879810277166,0.05742228545983774,0
0.05176590204691231,-0.07257438131534656,1.0186766764477078,-0.03776914661766613,-0.030575890149597412,-0.07033305484241112,0
-0.002230028371805305,-0.06888855425754056,1.0204758882401783,0.038293913974030744,-0.08079433937052365,0.014982384391867408,0
0.031110999114319523,-0.1889649292096153,1.2015275110460641,0.06453222304612737,-0.01985976580729938,-0.05511348702279278,0
0.09577916144729057,0.020760335140062577,1.0307676653401114,-0.05477596944227812,-0.04403770448013651,0.0899362509175656,0
0.16122206282554244,0.08968393158655319,0.9731469352094168,-0.044559611270764375,-0.10759077006646525,-0.03595766596212101,0
2.0355367587696347,1.747935663174168,1.9635711555794724,5.889278795503996,3.7381713061396282,2.159228110101375,1
2.4979635814392824,1.9793701736749698,2.3748727377191736,1.9850987674933918,3.8343270545535035,2.71001864556336,1
0.19913704184169045,0.039291351054821635,1.159040356857364,-0.028457409933626693,-0.03985567831124904,0.0020462374364461425,0
2.8356350683526768,2.373011976491408,1.6862299986279636,1.9465134513441114,3.8607557546638347,3.0722883471248696,1
0.01799143695464168,0.08378305352294807,0.9898005283364067,-0.04212163150631632,0.0375436389700666,0.03272155135528106,0
3.1983800886992455,2.222484157688088,2.015531713199466,3.838232718834331,3.830867028406351,3.7497666284891853,1
0.012522450264790728,-0.0429405541125253,1.0122297503032285,0.027164901451819396,0.002443003516285217,0.002029584560194119,0
2.201360532076876,2.3082896761536356,1.346450827800434,4.186068432470547,4.061573470571105,2.801330866177097,1
2.9456719508026232,1.897822136677176,1.8547792589944252,4.444145171087257,4.31575448665207,3.6024734362823634,1
2.985965171720317,2.071714468518662,1.5868173573670656,3.607770388655976,5.17817992212487,2.9270305681187216,1
-0.09933586995819507,-0.10158788269899784,0.8611457446168789,-0.0800135552251855,-0.06086413461102397,0.00797312534020646,0
-0.11302037246739238,0.24116766755784214,1.1516394055253574,0.030105916019624174,0.003601843064187238,-0.010610448495057585,0
-0.07825985974185891,0.0707032359610785,1.2084712921231016,-0.05039558477141031,-0.01698795038237619,0.011580373708404592,0
2.869972025689658,2.8398736911107645,2.171053019825209,5.9172591484261226,1.9744282919389162,1.8458366152204586,1
0.17481370691208353,0.1040061819902576,0.9260228836027032,-0.06673053034551163,-0.019283631548892413,0.021725132304565287,0
2.6460744210593994,2.140117973001247,2.146084414103663,4.114845090277753,4.368798338305549,3.023104346000731,1
2.4799813962394506,2.7665062711245914,1.8450775493179634,4.785126585460055,4.3439514005189315,2.716313779072827,1
-0.037058276240078285,-0.1348047111940167,0.9285319323009569,0.026063995250690725,0.016083927068825006,0.008402990298341012,0
2.1143652916612594,1.7485451749809904,1.4771525145610438,3.791082042629128,3.092984108193229,4.850781142435734,1
2.358937111533044,2.615351452492235,1.5255235861156609,3.093097125277939,1.149544147375639,4.67286820189853,1
3.03427477922765,1.955714466365605,2.342357427024946,2.9230454591220534,4.877974333925414,5.148706293937051,1
0.017334166437040822,0.024395319790850026,0.9776797745365194,0.07449317193010412,-0.08004519892382578,-0.0414248512390123,0
0.11955313880867094,-0.15189697808133149,1.050458181447739,0.03132691816684712,-0.06197811430401198,-0.07514353043411948,0
2.300114744278471,2.0785728918512674,1.9988809417629094,2.9325660670395006,2.2409350885518067,1.9946848740027645,1
2.521914399730214,2.47790137255624,1.7578708240345848,3.9540711712598395,3.4834315901774797,3.683324511516092,1
0.06504500925361392,-0.15030803017598182,1.105194761772292,-0.04990303136572065,-0.019198563597617582,0.012510010312584724,0
-0.16834381922209504,-0.08058700664961888,1.0964851633097457,0.08077914117741158,-0.061717443593996106,-0.029623212957644713,0
2.501091795418518,1.3124573834164575,1.7687335168433105,4.387679879032847,2.2225633961546576,4.15658165159424,1
3.0531157794299846,2.100349347144439,2.128626710555751,3.6555227912475474,2.7505840130430266,3.337766099054601,1
2.614241088859096,1.9569189479502527,1.7184594614738131,3.053435481472185,4.630526619537311,3.03080713499795,1
2.812966047986451,2.6849341116809553,1.679292104988283,5.110677684054092,3.7753962341432086,3.9137116523425908,1
0.08524686434329506,-0.12291835978004162,1.145211769918256,0.0007074632482879147,-0.02982057039844398,-0.014959088621371725,0
1.7102818506412008,1.5910540789307472,2.1956046636186968,4.581781770628362,3.483776882404059,4.156833781036989,1
2.761999477792164,2.046371532889776,1.7514846546670457,3.046842495244908,3.8629957034326874,1.826369607453202,1
2.9768801279056767,3.0859013336983008,1.538824335469041,3.180613169501209,2.3110588819466513,3.4417606496494795,1
-0.06011265526688469,0.1165916520255223,0.8333236593210802,-0.07473780732248221,0.006829869779437618,0.001269263898613586,0
3.141677288644103,1.9482060526764677,1.5702701382759916,4.679373170574121,3.195332166244344,3.620500899099163,1
0.019548173155329085,-0.009884520123930606,1.0435975389500045,-0.12661230426098427,0.034103474503131566,0.0063088951830983595,0
-0.08108575112103383,-0.12575778589146164,0.9765980140893019,0.023317918722316727,0.049366725829455095,-0.0037975511821261385,0
2.4135771625929445,1.7821177515146904,2.2211584340822426,3.249270392994401,2.348002452420857,3.109082970349832,1
2.412778032857359,1.6262853733753977,1.3340434448044571,5.307964192549344,4.054638708131807,1.3760821574300328,1
2.5328923447373746,1.6995851804520425,2.389848091089747,3.9398455005948723,2.6272150464723576,2.0798477685423142,1
-0.08289950109220723,-0.05601810401969696,1.0747293605123263,0.030518513271673244,-0.0010450796982074066,0.0058663691654391,0
2.171951381997179,2.6346278359493103,1.7513414268211651,4.294082038793214,3.6633346806775386,4.4617170162571185,1
2.578817279220472,2.0974775462060937,1.9879354447725133,4.510600690410314,2.7043448661741927,4.399417926653883,1
3.1590985336170125,1.3209125392612031,1.7783682675910486,3.7114248828458987,3.3854405725274805,3.0840943882501963,1
3.217088518260163,1.130287377883861,1.599888632300048,3.447307046216503,3.118368904586789,3.7401256641052445,1
-0.06465728842425265,-0.1081548003614395,1.1687141635072564,0.044081987847472526,-0.00039863206583086864,0.07399720694450129,0
-0.0017894977008350054,-0.09764000486637975,0.9954745698035663,-0.06165506525074276,0.06954861790007004,-0.0677985172429982,0
0.10302834540318423,0.023878915902651354,0.9740957854179297,-0.009817492454248913,-0.0035800629707031977,-0.0018611118254920796,0
-0.027999330187447977,-0.12790307362197864,1.0515294321624467,-0.04171409050173124,0.10920483666902281,0.028525360417725798,0
2.982077942085989,1.847277648779159,1.13540855524829,5.9529173824895105,3.438902491994132,2.251200203979946,1
2.2036003834106763,1.988303019878027,0.8086188239634675,2.89867337123029,2.8729491545526495,4.20750319495192,1
0.02166831189642862,-0.030335006747713424,0.9781133748264375,0.03831214875202548,-0.0520096859907949,0.09725975371384665,0
2.7671039311873376,1.6366290475589904,2.520477086898895,2.734741590914785,3.980586758427713,2.127011033110647,1
0.02571989703559274,-0.024066517453021304,1.0007880184694729,-0.01628055260742518,-0.00821676029426956,0.010604667653708762,0
3.0472812273068977,2.6182447560920883,2.9350693464106525,3.50079800172407,2.7815160148388838,3.783465648324735,1
1.956125662323166,1.9380538183823994,1.4407382578941839,4.642855493962948,2.1487095973015657,2.6998712131718,1
2.571344206100815,2.801850927733465,2.229818659037408,4.9136072175680345,3.633565415535978,3.6756644532569767,1
3.4480616381271734,1.3195825108494605,1.4452722222768901,5.712711411276272,3.545960936048934,2.7574169637102064,1
2.6419555293681904,1.9964685477245852,1.801225651727111,2.6154819805750034,4.4877285159246,2.224393638562397,1
3.0508689308931043,2.245996743418248,1.196871605799021,4.394957970323307,4.572929614507347,2.1466005259608885,1
2.00071480675878,1.304008356601462,1.5601413193077218,3.8257329655330743,3.603117582445637,2.7287034368523595,1
-0.06534628957248072,-0.03865416158977598,0.9364458901184444,0.010416125431279608,0.018018435795243055,-0.045532254359124495,0
-0.07217375533372533,0.0176820872139398,0.9453319915412735,-0.013582755516302664,0.08367260451492686,0.06702305258951739,0
0.09955815140020298,0.17031726099180378,0.8361970942563983,-0.08931877326773434,-0.031101740277719073,0.02913687915869322,0
3.340382856694095,1.9988768991214396,1.5909989076291269,4.123018673526755,2.9494660317992984,2.3832698900435982,1
-0.13358624041686135,0.07241365593144973,1.129075842412243,0.12939544867653424,-0.059986263254510674,0.03494598425403944,0
2.33713055340869,2.056667231952651,1.8786357053444858,4.122728907705484,4.786947286116419,2.875451520313576,1
-0.007938842440570288,-0.03004659487207037,0.8994398624310534,0.018008209197288346,-0.026882287888990827,0.032770191492511855,0
0.031917451041918045,0.13404504460231445,0.8124827530354255,0.005751303957370859,-0.00800663977833202,0.033567003822523284,0
0.037640952609751664,-0.09020515543575104,0.9130336918725306,0.05627173922073847,-0.059470594643366397,0.08213364766279818,0
2.8020258224608114,1.7949852942305446,1.964581576041955,4.091124867253377,3.6076994491066183,3.9982176559717297,1
2.9789969707400097,2.3317728092492174,1.4869595779021878,4.381425617534342,4.497265567658872,4.181890042558893,1
2.3416602270328752,2.6872424907137797,2.4033382010821813,1.0568584345282668,2.4959203670449726,3.9443852228353897,1
2.692985046284438,1.4116775280499736,2.4640453054955405,2.229518862223922,2.9218865412843567,2.741991463802391,1
1.8373593140237796,2.6730517119312402,2.59258151571967,4.898302549689035,2.8062333925032497,3.3424508791769014,1
3.0297827863116984,1.7223597515473352,2.519006263657981,4.764213203338855,5.2279638353817655,2.5306535335732887,1
-0.09944285217997922,0.024954818959807702,0.8816943815265611,-0.012638162754809269,0.0514706550477663,0.0398350963535371,0
-0.06518361078021592,0.004739867131641402,0.9139586634716048,-0.01922777721149127,0.05031464046072203,-0.028844593476157438,0
0.06963228620803234,0.02787998123854607,0.9791331628779534,-0.015633422286617866,0.04289494126456715,0.027678476553389664,0
0.06891644570743356,-0.06836342822863876,0.9726270747833239,-0.0007135176474694253,0.007479897875939403,0.004891358735396134,0
2.7365727266338933,1.6485442809802162,1.88109648128703,4.466431287412317,4.020689496422669,1.920467147833961,1
2.381343882902391,2.5139795011288992,1.8039761086664428,4.028320263677764,3.9213602543067085,1.9847076257501841,1
-0.08108939362002499,0.03668140432854423,0.9259509893667841,0.04324122192455057,0.007570152397586631,0.014922590699071989,0
0.09163276747024815,0.03464884758979927,1.0998010109859653,-0.14481276890968448,0.10441873523903639,-0.006979481407758688,0
2.777913013787564,1.886736263808581,1.784786150599642,6.0084730109816995,2.027645938489222,3.7339504783642385,1
0.033231401197959164,-0.07484865365565536,1.1551151975522522,0.005783731714642934,0.058964859203191326,0.0033759240705054476,0
2.8293159763952547,2.116097252321164,2.497707595224737,4.575561925830365,3.204943810194358,2.5371437142856204,1
1.9611396271041992,2.1715792770987083,2.311472015206654,4.641541644936012,2.712963721066701,2.0217343507337597,1
2.185389663576319,1.6466466158134971,1.3534388747975148,4.083872501760934,2.4195926707214985,1.8225834947507114,1
1.7772409261273383,2.1809571353652633,1.6012809414649505,5.074529790229931,3.725269722015047,3.606762150206407,1
2.7165920336357714,1.1981352624850523,1.2780355387538864,4.019290880373942,3.4776914610875687,3.343554577039936,1
2.9471163872504675,1.616838737609287,1.8677270506476389,4.3657599860929155,1.5584321993797787,0.6150944910494176,1
2.312008210324067,1.7194554345095012,1.7552928827527898,1.2547004463276155,3.905035385855713,2.1544478236453863,1
0.11731246375866414,0.03696421921980939,0.9892697855995771,0.02238584629051388,-0.07854380760342497,-0.05633837344549027,0
-0.011122606134870032,-0.09039076414647898,0.9264470057410233,0.06180465876052187,0.054565506029713454,0.03045690604535885,0
2.3488252168341246,2.4208161278825377,2.092108614765047,4.609951387331977,3.2681314933742103,2.6579826541952247,1
-0.21523835446091805,0.08764556455029356,0.843850677755814,0.07517099142144995,-0.016506004698322516,-0.010583349096558845,0
1.135297807538133,2.0026026309474734,1.7701973506212598,2.9367413134687217,2.9467589981602007,2.4262968557073483,1
0.09751976297824298,0.050109416993984524,1.0189581616598744,0.05005230462835706,-0.13516161464996188,0.033893765976545386,0
1.2709152847254908,1.509617578168731,1.94317157875048,5.599123240836734,4.173133692232969,3.305085404706753,1
-0.00626482221218215,0.02412402484067293,1.0084505145692864,0.03989972748061182,0.04617543080236844,-0.05253116609139006,0
-0.06243453897132241,-0.018452535765584956,0.9395255335461787,-0.11027830285495346,0.04485330984435661,0.06374375206393611,0
2.4499136156066217,2.107462982388353,1.7701293024684803,3.660911705473173,3.59600926799705,3.2020745061613125,1
0.1450927548279212,0.18071966436378853,0.8317341305877314,-0.05120142954431898,-0.013990517118850306,-0.048226889745509566,0
0.02167755637626291,-0.10973025276328441,0.9411133173261303,-0.04186312155248502,-0.030393763033790894,-0.02695613515744893,0
0.22988981236192504,-0.03628385604396591,0.9554497478599229,0.07266922385588505,0.07897860728653562,-0.026143001357663415,0
-0.15981243518837476,0.046217266608194287,1.2024309623286853,-0.06815870022964053,0.009485308380519784,-0.033099108889830454,0
0.027669079933001908,0.08271832490360238,1.0013001891877906,0.07267670385786584,-0.013232841661897804,0.13600845832948094,0
2.844356372277385,2.3048688616683526,2.7095322066787606,2.0504098272739673,4.1672189393045285,3.983736043903564,1
1.9982805482502481,1.8343238504560755,2.7082058958501465,4.773239986665759,3.34216249015974,3.308292063638821,1
-0.20819294078837222,0.16964563682900383,1.0211017467202619,-0.00483565559351962,-0.02724595434044749,0.019956805717603544,0
-0.12457173764463846,0.005493411099984873,0.9290420145250827,-0.06292524553376673,-0.01085085252121852,-0.015424139422790986,0
0.11070806692869728,-0.012038116395359824,0.7827330453985963,0.042371083857521086,-0.026766409297696137,-0.004526664115208039,0
0.11677820616598074,0.025442084330121312,1.0337602662075203,-0.02059384830612337,-0.024380311203624678,-0.021627909390981047,0
2.3635777268299347,2.4850875412839297,1.4507953910187237,3.380877051750068,1.9934747419608847,1.9957094365057468,1
2.5515589628586026,1.774277304837533,1.5135860537085215,3.962436490633809,4.069758919704179,2.675823138959359,1
-0.04894394425182222,0.1044160877069072,1.0681891489626312,0.09233536628680168,0.0291964092662982,-0.017964604539352978,0
1.9395515131159202,1.1476121278859779,2.5262736553673744,2.157063093752324,3.747271452108756,3.8865794927576496,1
2.105976188383496,2.328464533171044,2.7169164193299222,2.6227045107279,3.156664824147551,4.142207392885558,1
2.7687060014101905,2.321150617505588,1.1528720520024611,5.006606541032628,2.9303010370742686,2.642172066558733,1
0.02096594152746258,-0.04916361856320474,1.080712259663731,-0.04867730998522343,0.023817888467810966,0.025273507958331345,0
3.4843786547169793,2.469867740873552,1.6196996677874305,4.570940993942198,3.6183500656551773,3.3915511752600938,1
1.3019588558347919,1.660509826768434,1.7597127933987626,2.125107935952467,2.342584209784566,1.019163529077366,1
-0.013808233466148177,0.05911361179239325,0.989302853014152,0.09711227973781499,-0.08736108334826279,0.004731052233467901,0
0.0240205843946223,0.12531328247682436,1.0789919722180852,0.048478451287645344,0.016342770030521866,-0.06946493651054951,0
2.5705572483527965,1.2375075299279703,1.9331103137393801,3.139561531933167,4.194326381149299,5.572752389244474,1
2.4939782235200343,1.4396161746518752,1.971301268106603,3.9491992113804666,3.6606499403531165,3.6622629821596195,1
-0.004558601635549781,0.024333944932269185,0.975876394214367,0.01760276982571484,-0.0625769712095222,0.07218823020366298,0
-0.07373799034979586,-0.08341848487326238,0.7733947905850718,-0.01753891028007771,-0.011385980741787642,0.035774654838474265,0
2.717605764144801,1.6292508750436374,1.828121740244945,4.121461064199546,3.0005488071147868,3.669085210267524,1
-0.00821511783925688,0.11172958315881276,1.0342725346377704,0.022837660957689198,0.028488364011610198,0.02238542800086575,0
2.3559686008243608,2.2155114790054466,1.9432187176047742,3.944147817347189,3.12261348253779,4.344854031180694,1
0.08903831635197862,0.05752050161065663,1.050066572138121,0.002488684359048004,0.0003531579314088226,-0.03301605697367235,0
1.5227034977583622,1.8448015981220154,2.440531093690333,4.540589541812241,4.11908316938801,2.6244910193605007,1
2.668451631988308,2.2261371888242896,2.837818146922781,3.806005207433375,3.90848533814647,2.138711897614099,1
2.5717029805356524,2.287678362260063,2.4803066162517426,4.791497435972957,3.328189536197326,2.8533682259563977,1
-0.068604975703518,-0.06172122466479616,1.0107057452992296,-0.01725734405690136,0.034396648602571404,-0.030649163563534476,0
0.05793467597567758,0.14120268785432497,0.9371856260830822,0.004946689351444186,0.016917872096797983,-0.04962890033644115,0
0.06870657958589163,0.1466540859278603,0.8888419750486449,-0.0017912789353231467,-0.026572727567960752,-0.0783929712682728,0
2.306254342547283,2.3562522210460806,1.655335465959964,2.589532583587225,2.2022716243187674,1.5378895448045853,1
2.6226458713184675,1.3787495815403064,1.5275456386574664,4.6457976416037114,2.484336769120174,3.538211605492257,1
2.092800906276838,2.7504215151401894,2.6764002674483627,3.5334259287972234,2.8713297529691397,0.3818668013077202,1
0.24034155852382752,-0.005761879703358539,1.0201099046714968,0.0525327198003806,0.055276296647899195,0.05935151527801901,0
3.9326060115429815,1.5490036752784013,3.4121102131976015,3.6457936114912117,2.9075345446194856,3.3270723748778455,1
2.443205943189475,1.8087080786387832,1.537537092140363,4.268775789148641,3.687107100125092,3.3884246136775062,1
2.066038768624423,2.278568809201741,2.3746412784397255,3.4025211419755967,2.004458463501796,2.987701550691942,1
0.22816518365388427,-0.06176416769336967,0.846495975246764,-0.09400050169538819,0.035635601443066565,-0.09415751040292919,0
-0.012754912037753422,0.15111549302473476,0.8548824309948441,-0.0006044473923027281,-0.06261967222065595,0.018181594131248393,0
-0.0026405756958927033,0.02801611588196068,0.9190396480078353,0.021203052223204486,-0.02369196735354581,-0.0007226135439139552,0
-0.24353123317828884,0.06841632086089545,0.9185243997176452,0.008807522594384607,-0.06249101697946821,-0.01326187702351011,0
2.3589375284311327,1.6845682446582955,1.567784843163231,4.692775769708238,3.2952927664777123,2.61350510967721,1
0.003800347816820029,0.012003132671826131,1.0613517972730417,-0.05113962825992028,-0.012868826871167256,-0.08342920369387948,0
-0.05561187467607806,-0.013006029355362004,1.1669069525826332,-0.04712790028959382,0.08073893953549258,-0.01610140772460292,0
-0.11031843812330935,0.0820553502887897,1.0184309064078103,-0.02100138636470813,-0.09523373467327319,0.07222060975275438,0
2.419774978367183,1.859944496124997,1.8597141467007237,3.383972456282044,3.1538957282199847,3.849644782706652,1
-0.062451045508857744,0.07469808401047098,1.0031491562261996,0.03450368381683063,0.05438552130789331,0.03458092875606942,0
2.7197263452289953,2.6339802435515445,1.9878007163819216,2.5777703504937928,4.342513896455005,3.7549587661419643,1
-0.05176112990361714,0.022378795163889853,0.9983577103927248,0.0594196636724042,0.1263466212936811,-0.026543438646016035,0
-0.019692180799688958,-0.04645810781156184,1.0044358797515607,-0.08728537164298261,0.024735282688751623,0.019171751570182208,0
2.419022591529336,2.2192063497483225,1.5580005716267797,4.1324971434956455,3.1185105851759074,1.6795065565949685,1
2.082155497489982,2.548610095803219,2.4335937064138693,3.5026456285859067,4.076451345122423,1.4914440317871436,1
0.050860837323344205,-0.04303093199546424,0.8515943335075664,-0.010423410527020395,0.06033040774319576,-0.07635839282948238,0
0.0347561613803552,0.008669769941439658,1.035566894856323,0.00957886980970448,0.025312049465296305,0.07236528496959033,0
2.5930465104379676,2.648128354874001,2.1117618812707684,2.5160209405325826,4.951926632314722,2.052469259027888,1
3.4918520677393756,2.378588410551011,2.208547662211623,3.0153663129820445,4.071141242038074,2.2765133775802,1
2.101609383665412,1.770800818393603,2.1746817767411897,4.342099481557382,4.007611822943248,4.100392892278729,1
2.6220492217511935,2.1369555434235896,1.2384137679130762,3.468588598861575,3.306917925993387,4.050319552276355,1
0.2086047049537114,-0.10147594931858522,0.9638537233306014,0.020822301905072633,-0.002695242450286958,-0.04911517901886573,0
3.3765974010327926,1.8174236934008934,1.5797535072466542,4.687238450395288,3.064210270376364,2.1585504858709914,1
3.4038154028353427,2.8207143138611572,2.0328943243244812,5.6629314471898375,3.3399255133916954,2.756589697432092,1
-0.019578527096858134,-0.10422715880472484,1.0570421173360796,-0.016571568564075143,-0.02593333598106051,0.04266007725257773,0
0.025049285034587657,0.03464482094969757,0.931997527842151,0.011612684858050178,0.014653623664934064,-0.03571757090131839,0
3.527096920628035,2.0739103695182637,1.2918655703296964,3.3572236171000522,3.0411231549750033,1.9824152227866243,1
0.029089705759000592,-0.19955317804517386,0.8878756259905608,0.046470499239540775,-0.006606829445077363,-0.02618656513857109,0
0.06654168236917787,0.1941217436463749,0.9121676922820261,-0.01890039495091086,0.011572296126278615,0.03232447688628853,0
-0.04288479256060734,0.04158368362860605,1.0600212965744278,0.0478966027607842,0.09038042538846316,0.02530788277303562,0
-0.0589112132781127,-0.0935596298762426,0.9822082124195601,-0.045640545964825655,-0.020871519099471613,0.017202696078173325,0
3.195728983477971,1.8938778450800346,2.0163868187778906,4.021222650834258,2.5654061051015287,3.077585389486391,1
2.816612655057547,1.8061850836683768,1.0325179413797645,3.850638504350359,1.1325223466267218,3.3537706308913897,1
2.2745029914853454,2.1469746939715812,1.613728944078882,3.9420360003316977,1.9861694987551464,3.630875603596156,1
-0.1656623207677774,-0.052444813626265185,0.9264696539318048,0.036073966187867165,-0.05250703698010728,0.03787475746687428,0
2.6730586643988614,2.2460071402834494,3.0321100674262054,4.15809487586681,4.319739717258095,2.804527356414026,1
2.2050423018750336,2.1655194514086067,1.59532665760256,2.9742766050253926,1.4351347223163584,4.221804684976702,1
0.04967141530112327,-0.013826430117118467,1.0647688538100692,0.07615149282040128,-0.011707668736166799,-0.011706847847459028,0
0.10887696542166721,-0.03763007249249961,1.00188190497406,-0.05858271736587809,0.08478614389054327,0.09486443473865558,0
1.885252421145956,1.7940383828070234,2.9057778865969563,4.579076300875503,1.0088385918485399,4.216723492497946,1
2.91007179706153,1.766130658070709,1.600896961820923,5.0185374276503945,2.21049993027602,2.698420192208895,1
0.12276689924732923,-0.12096410186912054,1.1672572386837703,0.02095095046830226,-0.03525059278792044,-0.0027884538828853007,0
2.9524810207470997,1.887096625461979,2.7182147597794333,3.2960836745844553,2.44529554503408,2.932769692803869,1
1.9283305044580696,2.0437368768403696,2.116521475764742,3.2819352163817355,2.912143695092,3.2306108487662146,1
-0.0370508098590029,-0.1405567019178642,1.0015618333949603,0.04511385868933236,-0.04538780900734602,0.07596419618208844,0
3.048742485676582,1.4140330353884027,1.0904744923487262,5.868527188073091,2.1061823521257947,3.1841193983281695,1
-0.058064830255395106,-0.061138524738862825,0.9907055793386411,-0.01197509610108749,0.055841688776497714,0.009320808487202317,0
3.2465015522216016,1.9199349302010313,2.3091802831298325,5.455600479257298,4.531653774575175,1.5910808973094754,1
-0.04166253056154626,-0.006312301311124826,1.0395798848709747,0.013177540597739248,0.06420478969740587,-0.12131960352676041,0
-0.026265952031616774,-0.03363869454111362,1.096030479628147,0.023124181203342704,-0.058968456081630864,0.008612719320551875,0
3.0078139419972354,2.0937296910444556,2.026228693444722,4.779828640755049,3.1248910050564356,4.568518985472554,1
-0.07717408145967825,-0.049796184681784206,0.948746588935345,-0.04007637950522708,-0.017359324755613123,0.03854011099939856,0
2.083429238335517,2.532981859865913,2.008916127264879,4.037566858707252,2.297328492228008,2.0099862860968605,1
0.02891686439078181,0.24553001399108942,0.9362260015748685,-0.026549847750090883,-0.03115702632123822,-0.027773855958012735,0
2.155361688423806,1.6575019249368037,1.7254367595052114,3.4055022775732775,2.220352151650757,1.875799903053022,1
3.4765298477699482,1.5025718237662296,1.6200989340061125,3.289984557108448,3.6299982258015953,1.9369637271462818,1
2.596494820886465,2.8382274809573316,1.2175130532791103,3.3991128241461874,4.3226824265741435,3.3353172563973077,1
0.026784363786633333,-0.08235349706258495,0.9481747361138797,0.06626380452185188,0.041355771428288404,0.007898715612572585,0
2.683599899387694,1.984264314898158,2.754761996349427,1.0332469312592694,4.009887247921195,3.717738706658979,1
0.06779258713392691,-0.04879114081457027,1.2157308213265503,-0.030285746150166923,0.03710476860046535,0.014964629020324596,0
2.40540490936246,1.9568310708766365,0.8920887874896659,3.804565153477236,4.336484137964941,1.9322774229614548,1
-0.047004214775950154,0.02658782296520485,0.9563280263959404,-0.0033066307312911228,0.10498608945832577,-0.012351285037299833,0
0.15301951988633514,0.0664927162301741,0.90754358856219,-0.07987995847977161,-0.016350865880488556,-0.010672838967521914,0
2.656031065863369,2.4291352150909358,1.3685185315663386,2.0888406747395125,2.9325527187716482,4.801528407832186,1
-0.058168091394864375,-0.10147567306928669,0.9350722454933993,-0.06119701333811283,0.0017041734129613036,-0.03849866155293209,0
0.079994190194205,-0.1616310608436588,0.8946317580853645,-0.05339014607895966,0.04751537959867879,0.08553066862909627,0
3.2801277647654654,1.0241985435585566,1.342279346475077,5.309444101402648,3.2231106442311965,2.328279210741923,1
-0.021113023882769446,-0.0987179527151184,0.9868743032907695,0.003842594147938411,-0.011242799090403929,-0.03250012904117299,0
2.157593945130552,1.9528654646175496,2.206177984542974,5.576172527741378,1.6417085117748926,2.4923058716102893,1
-0.0482313570936303,0.10989833574419648,1.1959837254744676,0.022530652471569417,0.004138645189271288,0.001839141658711739,0
-0.06626237589458467,0.05705986685931594,0.9236740843457483,-0.09024410503322595,-0.08137712189415813,0.0024042473330691,0
2.569825837107948,2.0325123155943903,2.4066402030322966,3.156146122575101,1.756327397603464,3.156823016098193,1
-0.02460624881299486,-0.08432465953161918,1.2170942717497815,-0.00879429062161683,0.006160240339224284,0.027574268802023377,0
0.0033719054901053245,0.026859358104429788,0.8885177812647586,0.059845547438067616,-0.02984473923659857,-0.08372347302266227,0
2.91128646060024,1.3442280169814995,2.078673283836539,4.976506589063165,1.427864883903513,2.795067525758392,1
-0.07390286580232329,0.06523303381766798,1.1427305364289215,-0.020971737632927534,0.03782441771580492,-0.09570300352937337,0
2.698698511729617,1.6262721730208938,1.8597489732941912,2.5971338427921453,3.3918610096085833,4.112100619221339,1
1.970394145813549,1.7498694917066622,1.7419416790642828,6.124556229829014,0.7261850600660833,2.820380278594367,1
2.7499108179869047,1.0044299255226667,1.8193849035428136,4.122490925374454,3.587357425260264,2.269186874391247,1
2.5269486735166033,1.3368689190254215,2.2787042784255926,4.63221631403185,4.182338782059659,3.9465770035733865,1
0.12960630617813962,-0.11071568168024518,0.9634494063014735,-0.007564961011626116,-0.06978946010962427,0.029567462087920018,0
0.09960476858058165,-0.07567950885694608,0.8578189333258156,0.07506668259777434,-0.01613399194210679,-0.012541650822752368,0
2.033440455656929,2.3367363980791156,1.8765408362552727,2.0740221815548985,5.287239964604669,2.566009537784043,1
1.7922379665431467,2.488936136105569,1.8648143004321045,2.6102198568073307,4.852039365974326,5.09940752050251,1
-0.04070363129267805,0.06863184569567009,1.0105894453115234,0.029220649023624215,0.09882202922577428,-0.07821208058555257,0
-0.01108125602790875,-0.03882430535215389,0.9944079551477787,0.016897876411605915,0.044565184343487774,0.00021149294970757883,0
2.523318683282983,1.7395535480481183,1.5828131938524392,3.7654209703808124,4.188259710772414,3.5477389787375606,1
-0.06724855960063363,0.02232708359202609,0.8257778307364725,-0.027302089940836063,-0.05460606001742836,0.006766917394614546,0
2.0947356850891867,2.428487768491393,1.9657767536667923,4.028775564080998,3.314902350578781,4.212129204233486,1
0.10325462043416574,0.11267051368275834,0.8909033569784801,-0.02054071439772924,-0.05528523342429679,-0.010746051514436767,0
0.048100923173671324,0.022388402427913137,0.9209525544554689,0.023573417856799787,0.09410122482375169,0.06727100230774889,0
0.024496657110872278,-0.05069431753711298,0.9528961694381677,0.011602496867881815,-0.0724042170748662,-0.07037318871882776,0
2.9919261718030734,2.062943265288329,1.7617242883903792,2.695410556199527,2.6064049862808796,1.3586198843979032,1
1.2562716206469353,1.7708884853717495,2.8320960273919495,3.5239374422221332,3.0093877659733472,2.7172406723706315,1
2.5693175142652254,2.249055997822271,2.2580815114632347,5.06542472359758,2.725197821864471,2.4673932433265033,1
-0.11892324650771291,0.10539857711828762,1.0572006278300472,-0.035236421780544196,-0.07687923982245877,-0.007245228954071566,0
2.406471241763169,2.0477310206791484,1.4851945144552996,4.226931943800248,1.781069587046153,4.04695453442821,1
2.0158320683732205,2.124152737867992,2.3762416885371094,3.4118914010756907,4.589272246931099,3.382033705716011,1
-0.010703035995455783,-0.10352423224193741,0.9446350694652818,-0.059893894629442425,0.09823625664581948,0.0017631775985864307,0
2.1567306234231154,2.581688027581775,2.5343961606971463,2.7140002934835064,2.4115887643271545,5.560502959355684,1
2.195753048134399,1.496066043388935,2.1268686483874166,2.2069236020876106,3.2120939231320795,3.245038664315406,1
-0.026451484131061076,-0.20038623644067535,1.0635418030209227,-0.06196291974267363,0.002996631513316413,0.013868846897909584,0
0.1593186626639397,-0.051121567643118516,0.901039517974142,-0.006289346004982408,0.0027862456144347302,0.05470957592354743,0
3.1373265620191706,2.4623609027567106,1.6686542582559822,4.086761075462647,2.967163731220076,2.180733535810628,1
3.087380900116519,3.0580060284154973,1.284405833382124,2.076783713790248,3.2548275781486145,1.4815843011713175,1
0.051360010656971655,-0.053270083966191144,0.8830083164289712,-0.14361311066408247,-0.0013757452525318128,0.0886125798334872,0
2.4064172260680694,2.6381319939367773,2.1856033817350293,4.018230997137117,3.480469610532898,2.286371106795533,1
0.11966314866456512,-0.060978290431938226,0.9865982833327083,0.0007344097364598547,-0.039244915654112006,0.03241402169219295,0
0.024365722370271445,-0.10902084067994298,0.901446039927907,-0.048487185981733724,0.0055267658736970066,-0.03131576380915035,0
2.998529678226821,2.5636750446777428,1.43507507139072,3.176163130358846,4.691090683146191,2.853146478744699,1
2.312296276758019,1.9755850820331484,2.1177278975555573,0.31163470857155584,2.692349442253235,2.6084300226439607,1
0.025972250172148187,-0.09043166251044087,1.0638592458777374,-0.083076003113448,-0.003303989932365829,-0.06055080998812284,0
2.5222760827855755,1.3169429595331574,2.528980356919396,4.0818443345295385,1.7318430882467681,2.699325639556317,1
0.09583858198420425,0.0051660976851079805,1.0229074688205702,0.05371590063577807,0.01121698283890413,0.04520087773806572,0
0.026206680908672553,-0.19495617177543673,0.9649150569923526,-0.11091738800255407,0.06848505538270924,-0.05430272910590431,0
2.412676027159186,2.6800840654140066,1.9051532532737963,4.8495845310466175,1.2814300340489004,5.418777779313464,1
-0.09519184600222357,0.007748051851886254,1.025775254014275,-0.06208802877408122,0.016708820862244872,-0.007762952441237438,0
2.2836812418332357,3.0928653083612874,1.8767144728702128,4.7351321130540915,3.506381540963315,1.1517414699215849,1
2.8864239192718615,2.3915799438885053,2.167527175956086,4.564789105907648,3.2879103300795745,3.5422030069090487,1
-0.04611697320346189,0.07565646749131401,0.8605504931140738,0.05269457761479416,-0.059726146988301754,0.014290164339736648,0
1.9993426729010166,1.5389055472841862,1.52269094902497,4.518218950445411,2.993810938914664,2.82048542512752,1
-0.05495571359085802,0.0859587886979802,0.9612869350210486,-0.002270560896611911,0.0012694210271205091,-0.09598365780988283,0
0.015669372824652462,0.10235306441853448,1.0175286778933923,-0.06683627194379653,-0.020591168448182866,0.006596398338597854,0
2.8869385867214112,2.42052063848081,2.287193175566938,3.502630466859737,4.2145497614635055,3.3090544381042877,1
-0.025730000061778963,0.10821123129931408,0.9870965884870216,-0.042583108716719664,-0.03794853494516724,-0.0489370418154883,0
0.06256673477650063,-0.08571575564162826,0.8929107501938888,0.024123620762159265,-0.011173139266292546,0.0357000247046046,0
2.208969332953494,2.199522070323263,1.3399614061313492,3.7612473979365655,4.785582234361679,2.942938708568844,1
0.0756988616645352,-0.09221653241776255,1.086960592010566,0.06778189294024754,0.020671745161185043,0.0938397906279033,0
1.8552597063951564,2.029224740352825,2.45631016127022,4.421716933003097,3.4403456880078083,1.2983341417125838,1
3.1187322958667694,2.789171338748643,2.4393274250901893,5.348693198645512,5.49412374073444,3.216554738378206,1
0.06386601686431025,0.10581183250871502,1.0367619840209712,0.0074044709899138104,-0.044053416833064615,-0.03561103818245255,0
2.591506464155741,1.504236479447684,2.052639311954839,4.150602492844634,1.9969531406425194,3.995693754370362,1
2.2581706812812157,1.8766377879427798,1.9157901439855594,4.603645738960738,4.8746112675765545,3.359680847686321,1
2.751273123227091,2.606045359661368,1.2534050938955343,3.8312152625840508,3.7831308223195252,2.897943609371152,1
2.2298118305064727,1.5992580390844966,1.8007773625053165,3.5533569531853937,4.112269810105393,1.4405642208737746,1
2.147122218886401,1.869695833833021,1.2563127767980116,4.087204992037267,4.747303650664678,3.135491372316762,1
2.5967242874958982,2.654932584716767,1.962827335120738,3.815448557814055,4.092329547013343,3.0993138149513495,1
2.428170235051441,1.9174597174984769,2.0158797282907255,4.075673540613386,3.06770482089267,4.272714733971265,1
1.8732469938141192,1.8925225809605244,2.1928749840908472,4.702659998499306,3.740876757200408,2.334306535106453,1
-0.1525656314570095,0.1262584103427182,0.9448141854107553,0.1279099642834126,-0.02821237993286943,0.009227565159851849,0
0.0732829081821745,-0.12742321190767952,1.1048482651050593,0.02438874105421691,-0.03671166609855189,-0.007076481866892372,0
-0.06269670577877674,0.18124485579969288,1.0707751935455476,-0.028123338794713383,0.031620386952776046,0.0486277224813365,0
1.8570679913601427,1.7472551222777444,2.104426771267166,4.058212727085056,3.1065621037254494,1.090802541022757,1
0.051887118044012207,0.049580502102757086,1.000161903135694,0.02073864453943955,0.08021695541542982,-0.014254712852100698,0
-0.06683451948468017,-0.0061075671352376106,0.8941559366358347,-0.12490305087464698,0.01002298157068645,0.0304452678127316,0
-0.03652409774898465,-0.16711697724940652,1.2035873535181794,0.023448903907423387,-0.024597845243474154,0.06640284444934838,0
2.2278627835377307,1.4611280325348281,1.5978192491186913,4.225788034085522,2.2185090271311756,2.251188328976423,1
-0.11022921498364234,0.0681359510442948,1.0408607307701767,-0.015390423556944206,-0.04192928992236156,-0.04433404611417287,0
-0.24036686011005304,0.13924559414830676,1.0672293408040403,-0.07502382745815009,-0.07393885619231429,0.08361329520487638,0
1.938060797437203,2.1890231302139416,3.22993599251469,4.781497239460632,2.6357147380594643,4.135620585491476,1
-0.06947131310890582,-0.040928243811310404,0.9475911602065408,0.0076177436016861,-0.041120996619110034,0.05605153336622357,0
2.3044876665672116,2.7397408809304364,1.6704880866701648,5.328646411544644,4.317467126698372,2.0865414203677775,1
2.886773807553509,1.4745294169055199,1.8298297585585483,3.7742773683878648,3.955646910088595,2.2067788027929653,1
3.2706605724006605,2.666999092938463,2.388867523623927,4.074685842636885,3.5225003882454398,3.76379977236326,1
1.0265478903579928,2.8023675061474265,2.2455019729788765,4.32982306086851,3.4382239377294392,3.163427820386131,1
0.03437878815498854,-0.0048652351570451155,1.0032796995411586,-0.03792476673500347,-0.011520035710288368,-0.04621165721341522,0
2.21839513297869,1.649021350852439,2.192606326129677,5.120685706422595,3.3667212847708443,3.2054864275600203,1
-0.06506425691218269,-0.048712538376469605,0.9407606075761131,-0.0431995384839908,0.0024260813972413497,-0.04154750582055189,0
0.016540366029970426,-0.13820175686924377,0.9516382860444563,0.04208903873920064,-0.05256100148912514,-0.12658846581254068,0
0.020886359500475543,-0.19596701238797756,0.8671813951101569,0.009843061793456176,0.03692332899977052,0.008568414059498526,0
2.6904132091726267,2.6713609306755925,2.132581961373294,3.3510014795268424,4.383606785994169,1.6338016623310825,1
0.19203675021442612,-0.12228950195555639,1.0071253749910893,-0.06467538126020479,-0.0347847438598532,-0.045906349170828746,0
0.008531814256502407,-0.08082657216409264,0.9169555593443435,0.026125705263287877,0.02091991104443419,0.07007992964732147,0
-0.001383774609423725,-0.06897277740641738,0.9506877177600228,0.0721816001734407,-0.06282534471396282,0.04066025933739886,0
2.243512878016094,1.7782392000814424,2.0361245671181014,3.4378376580652725,2.077941502832069,3.215031942943456,1
0.05193465142411723,0.1532738913002578,0.9891239851543142,0.020085586104947074,0.03450719958555563,-0.020061023594291814,0
-0.002555407099144528,0.11727290192593648,1.0543600154594432,-0.0185307166043053,0.038584935532417236,-0.14242713103150378,0
-0.07352010347632466,0.16562082520572957,0.9756938801119134,0.00011439680717520247,0.05351825801149649,0.06359462109693283,0
-0.0227106007780926,-0.01417575540275386,1.013556341641471,0.03642593217572681,0.03188029061156043,0.012938490262196081,0
-0.06540756831274239,-0.1830632896856457,1.051120259952498,0.06868292725814788,-0.006872425731384593,0.047643727360146944,0
-0.03733684250030844,-0.05001978170959958,0.9830147642322269,0.081836998091532,-0.009165035476309865,-0.0009897172260353987,0
0.08687725005907711,-0.11863364271098545,1.0587855888137736,0.030986939235143438,-0.09556584458312521,0.004648962326470483,0
2.124794936122672,0.9189838500362806,2.229194504978534,2.8952253263584833,4.488608793499175,2.618862303326581,1
0.047323762457354486,-0.007282891265687277,0.9153206281931595,-0.07574236123429323,-0.022325747603351057,0.04281993971617362,0
0.16494808943239211,0.10706105599791862,0.927039753019259,0.018070865863655146,-0.06465707718793239,0.028619515558783788,0
3.467930512840302,2.067927950783145,1.951999669133071,3.8019402367810935,3.0637369678199713,4.0481167592691545,1
-0.03609661658190799,0.11593298033642481,0.8918936672400103,0.030796780347213188,0.02965506289841919,-0.015477321965699516,0
-0.0003602539090568405,-0.11583646891925428,1.1503398301767152,0.04386811452878357,-0.011048208691483197,0.001344291949726539,0
-0.1531535315243643,0.11502673958982962,0.9794715980503749,0.0559274972127663,-0.026326584354802153,-0.02617879942032915,0
0.052112242837933836,0.0645215585950057,1.0555604466003448,0.004479034062762441,-0.009866921015366306,-0.007563664182675585,0
2.7699754503775513,1.7850042956925805,2.661670461244969,3.9669319986382323,3.7208417702903525,2.957175620924481,1
1.9863740562474357,1.1994094005942135,2.31279565125328,5.484641861876508,2.4736463776101036,4.5894412835616984,1
2.978652411296766,1.9469546823292898,2.6167030381763348,3.9923110042786307,3.1121242181375304,4.306072203871629,1
0.10126374096440718,-0.01581538443723203,1.3243092969594734,0.11539581253080554,-0.009072453462375838,-0.005316850126565749,0
2.433498418034968,1.3395538587469193,3.071503527292455,3.530235535662863,3.658756050937543,4.156006669451127,1
0.3098299434071258,-0.02581751380314344,1.0510124361250075,-0.03246824098069405,0.014761628752030157,-0.011911683752780877,0
2.577577671432678,1.8008584832287258,2.058794314943601,4.151407396072019,2.921048242651077,2.103632452174819,1
-0.041102493650317304,0.1021622984073039,0.9621240163396907,0.10413301610548989,0.021543120950751872,-0.06378413299978658,0
-0.04590903102189918,-0.06946003691631446,0.8845637331767016,-0.08759144033758597,-0.019496185327972267,0.007902674496006594,0
1.9075240293869626,2.802467250876951,2.534723694062095,3.9958574150558457,3.684768650249024,2.7520839742569914,1
2.197004976957544,1.5286123798847626,1.8462113052181282,3.0322476604529003,4.0644982040474975,1.8382486998235887,1
-0.019569853114690144,0.10600897399086656,0.9948477071475353,0.02515451843118734,-0.015937415762306655,-0.05149059242709225,0
0.06904726861215131,0.026561699317253346,1.0657763176150374,-0.0034766143121134695,-0.059349669415287236,0.05289070904103981,0
2.891013693787064,1.5441913489230488,1.9900408018501343,3.752119880921337,3.0716817422022444,2.9895348709472707,1
0.005586393984449697,-0.030964971398806124,1.1146027575013415,-0.14187532206986894,-0.0008305171162954494,-0.0052909378748848945,0
-0.10872459388628027,-0.10858251288851856,1.0679373282956504,-0.05743970175793281,0.033315625045460595,0.02312956464269756,0
-0.07859894605079495,-0.1331232953557778,0.8163794626896703,0.025399566345627185,-0.05516833030869368,-0.10764452964762415,0
2.295329712390688,1.4719442154064568,1.0598557947156078,2.974780914262567,3.6149417717591317,4.427328651594769,1
3.8189408761301,2.150936690360506,1.8068387622764122,1.794705627244094,4.889764133946356,1.6547903291913975,1
0.008520944963390106,-0.29911359709007235,0.9813103841838016,-0.08152366218575702,0.060299725827340805,0.038870367638225566,0
-0.15311075025557222,0.05142547560178349,1.0572057441714144,-0.00310955084996555,0.056217667993525136,-0.016703861548997025,0
-0.0716822320602805,-0.18665366170730602,0.9917319314157301,-0.006087375419164177,0.07567248716210656,0.03154058422773888,0
2.890971267725959,1.967294883202303,1.9932483777035117,2.893267012270549,3.200306504067111,2.2365346966908883,1
-0.09799255747822445,-0.195733858913399,0.9331856951672233,0.009668972596207954,-0.06740885227137451,0.0007841118235812172,0
-0.15047203740310022,0.07600559636896026,1.0082439752934502,-0.07287757497324653,-0.015460453852493172,-0.037607820279529164,0
-0.03206676255571917,0.17952113559123223,1.0230070759191403,0.024887154454569713,0.03329621260272307,0.021079330530722785,0
2.341119552991302,2.058289256006232,2.535757967790519,2.493465969809601,1.5344441085234948,2.4128847293798525,1
0.08811467208133691,0.00013256887344072294,1.0395420985388037,-0.0478784477507606,-0.029466611571368095,-0.022931931805054227,0
1.787514414092294,1.512773726194852,2.1147863205371267,3.2756363681965395,6.8777682412893615,3.515719619170136,1
2.04867282000609,3.349164417968544,2.1210353351439837,3.149024919318435,4.363923549962446,3.769135779310033,1
0.16734418856229852,0.04417467363775573,1.1227034597048873,-0.07903019704045845,0.062228258017762786,0.11157494555138743,0
1.6563604601794157,2.415605551599878,2.435777983144071,4.32717055287779,2.3788659872420777,4.380138938868515,1
1.9332894908536886,2.1749618576246963,1.5523228131704,5.062853693033216,5.837827745388299,2.13924319829818,1
0.0005243699718183166,0.004698059376474206,0.9549934528520756,0.031142496617374938,-0.05338102146912972,-0.007118974251064675,0
-0.15708814571259122,0.13555729357103483,0.9389142360194934,0.02522416281915085,-0.07815171532856269,-0.05897298322538902,0
0.06855897462984165,-0.01416485860101269,1.1166370545669253,0.026548783098204527,-0.10891056598657152,-0.026473348175350415,0
2.7677293737048165,2.6045050994504986,1.1100624458959163,5.064170702341044,6.005448905356894,2.548358910823053,1
0.06820520657126199,0.14872461553359273,0.9419946758629957,0.011970225026768854,0.024984255515146693,0.02360011354596372,0
-0.05955349351838593,0.09005330773315917,1.169943598300871,-0.020089751347081686,0.03406811632876527,-0.05768461406699293,0
2.666040730708405,2.323064838012086,1.8396080690740004,2.6379566291452425,2.8161510995004235,2.9908409614653446,1
0.03078017688920592,-0.17101683926566258,0.8651814577894287,0.03716320470113575,0.008543271906397093,-0.009199166817633957,0
1.529070670310297,1.9980979331646003,1.204929084659851,3.3353489024979375,2.5971910730372003,3.8092646982419858,1
2.957826902129172,2.593207795258804,1.505563826182208,3.509127105106434,2.968068491707908,5.632386204677498,1
-0.0342549200857765,0.01704637709965709,0.9037267434715388,-0.010330563984802333,0.030510808479461127,0.00784864804842171,0
2.402754257567612,2.332938911853195,2.09431554078399,5.608067247172729,2.4643959439546057,3.8810588920574336,1
-0.015589817793666753,-0.0548287296490601,1.0160018225852787,0.025089136808377252,0.055869940795123044,0.07242496149464632,0
3.278208017785883,2.4664476775969044,0.49072161471610376,5.578945092717976,4.294758522471934,5.006408637712937,1
3.4343016095815013,2.017403770249916,1.5989002959824103,2.8528404889882886,4.5899049590908305,2.4288160259158134,1
2.6017410017261438,1.2945988574545204,2.1783338036249233,6.23697107706163,2.170640941065936,2.7154896956607777,1
